time,seconds_elapsed,rotationRateX,rotationRateY,rotationRateZ,gravityX,gravityY,gravityZ,accelerationX,accelerationY,accelerationZ,quaternionW,quaternionX,quaternionY,quaternionZ,pitch,roll,yaw
1776284983950596608,0.27159667015075684,0.048858072608709335,-0.01530526764690876,-0.13217994570732117,-0.47947078943252563,-0.8146649599075317,-0.3262343108654022,-0.015600621700286865,-0.0002459287643432617,0.011918485164642334,-0.6293241606626199,-0.19974168512855794,0.5449643149710485,0.5167865431319696,0.9521512814454507,-0.9733427985012245,-0.8423436626076387
1776284983960552704,0.281552791595459,0.07079320400953293,-0.013485264033079147,-0.1195078194141388,-0.4784955680370331,-0.8154648542404175,-0.32566723227500916,-0.01886463165283203,-0.0013533830642700195,0.010115504264831543,-0.6289010530572517,-0.20023987132900473,0.5450416242266836,0.5170272198826312,0.9535318475625254,-0.9732049920569134,-0.8426840792339862
1776284983970508544,0.29150867462158203,0.07582417875528336,-0.01653285324573517,-0.11802763491868973,-0.47758397459983826,-0.8162703514099121,-0.32498660683631897,-0.015870004892349243,-0.004499912261962891,0.0038196444511413574,-0.6284831108893267,-0.2007587904015897,0.545162919115066,0.5172062373448989,0.9549248702336465,-0.9732911503130557,-0.842753927485223
1776284983980465664,0.3014657497406006,0.06476380676031113,-0.02189379744231701,-0.11563824117183685,-0.47668468952178955,-0.8170574903488159,-0.32432836294174194,-0.01760852336883545,-0.008748173713684082,0.00043004751205444336,-0.6280579360652748,-0.201249603899578,0.5452837932117274,0.5174045858577626,0.9562888132953666,-0.9733575258600403,-0.8429024327436712
1776284983990421760,0.31142187118530273,0.06393923610448837,-0.02561846561729908,-0.09995568543672562,-0.47587698698043823,-0.817779541015625,-0.3236939013004303,-0.019347012042999268,-0.00537109375,-0.00325620174407959,-0.6276504484388364,-0.20168513055434167,0.5454137539417372,0.5175924028594605,0.9575423010562593,-0.9734795287791287,-0.8430374897631864
1776284984000377600,0.3213777542114258,0.07058302313089371,-0.027988946065306664,-0.08643588423728943,-0.4752035140991211,-0.818435549736023,-0.3230246901512146,-0.014481544494628906,0.002197086811065674,-0.0039406418800354,-0.6272714157172972,-0.20207841248675892,0.5455748959753823,0.5177286439886051,0.9586829890178111,-0.9737832850274408,-0.8429883591485063
1776284984010334720,0.33133482933044434,0.07424262911081314,-0.03136298805475235,-0.07709325104951859,-0.4746326804161072,-0.8190576434135437,-0.322285920381546,-0.012839823961257935,0.007381737232208252,-0.0056864917278289795,-0.6269061941340746,-0.2024530901608292,0.5457744862215597,0.5178140831339932,0.9597664891843135,-0.9742889170069311,-0.8427311097074093
1776284984020290560,0.3412907123565674,0.06565553694963455,-0.03160906210541725,-0.06955570727586746,-0.47414731979370117,-0.8196280598640442,-0.32154959440231323,-0.013279438018798828,0.008623480796813965,-0.0039051473140716553,-0.6265627784967774,-0.20279201993847587,0.5459859018478141,0.5178743491907449,0.9607614719004823,-0.9748762944436269,-0.8423970042627411
1776284984030246656,0.35124683380126953,0.03439763933420181,-0.03725184500217438,-0.07399120181798935,-0.4736687242984772,-0.8201264142990112,-0.3209840953350067,-0.014139533042907715,0.00651240348815918,0.0026704370975494385,-0.6262372987953215,-0.20305736888296452,0.5461461852462515,0.5179952061537487,0.9616319063885039,-0.975224785452065,-0.8423755350624905
1776284984040203520,0.361203670501709,0.010203889571130276,-0.04224953427910805,-0.07994496077299118,-0.4731792211532593,-0.8205494284629822,-0.32062482833862305,-0.01363721489906311,-7.331371307373047e-06,0.00852152705192566,-0.6259127809952593,-0.2032251742060906,0.5462482145939757,0.5182140034647347,0.9623715877383572,-0.9752646713569192,-0.8428112127143699
1776284984050159616,0.37115979194641113,0.004457639530301094,-0.049658339470624924,-0.08507926762104034,-0.47264736890792847,-0.8209581971168518,-0.3203626871109009,-0.009454101324081421,-0.002192556858062744,0.011662095785140991,-0.6255692713590922,-0.20335130963263645,0.5463212486482577,0.5185021743140455,0.9630870934728532,-0.9751222745328137,-0.8435365651750698
1776284984060115456,0.3811156749725342,0.003016070695593953,-0.055920232087373734,-0.08954192698001862,-0.4721001386642456,-0.8213806748390198,-0.32008621096611023,-0.004920095205307007,0.0003663301467895508,0.0069758594036102295,-0.6251953243372896,-0.2034628926249144,0.5464062125693459,0.5188196416002436,0.9638273927388262,-0.9749851931356732,-0.8443463271944165
1776284984070072576,0.39107275009155273,0.00714498246088624,-0.06326320767402649,-0.08927880972623825,-0.47155052423477173,-0.8218181133270264,-0.31977346539497375,-0.0059885382652282715,0.0019481778144836426,-0.0013477504253387451,-0.6247979574391082,-0.20356977262305295,0.5465094858820824,0.5191475600613049,0.9645947426794529,-0.9748981857534686,-0.8451654752413738
1776284984080028672,0.4010288715362549,0.014432722702622414,-0.07088065147399902,-0.08504597842693329,-0.4710494577884674,-0.8222626447677612,-0.3193691074848175,-0.005085766315460205,0.0063904523849487305,-0.006421267986297607,-0.6243770599015265,-0.20366623543543758,0.546658500537245,0.5194592024592852,0.9653754182771583,-0.9749920946747324,-0.845870157058833
1776284984089984768,0.41098475456237793,0.018764618784189224,-0.08002008497714996,-0.09200002253055573,-0.470562219619751,-0.8227304220199585,-0.31888213753700256,-0.0036962032318115234,0.008582532405853271,-0.011043399572372437,-0.6239269024728212,-0.20376468952446522,0.5468444792114796,0.5197655896222445,0.9661978974620418,-0.9752201472995987,-0.846500859978437
1776284984099941632,0.4209418296813965,0.023049913346767426,-0.08902157098054886,-0.10600265860557556,-0.4700195789337158,-0.8232618570327759,-0.31831011176109314,-8.842349052429199e-05,0.01096034049987793,-0.014514535665512085,-0.6234171039377018,-0.2038802997259248,0.5470628582395842,0.520101980212311,0.9671334793327858,-0.9755180967675458,-0.8471677238028266
1776284984109897728,0.43089771270751953,0.02172999642789364,-0.09841491281986237,-0.11400199681520462,-0.4694134593009949,-0.8238465189933777,-0.3176915645599365,0.0004955828189849854,0.015191733837127686,-0.017421960830688477,-0.622853643856216,-0.20400496187173464,0.5472989958491328,0.5204797202241631,0.9681641597165254,-0.9758220067403418,-0.8479347076775907
1776284984119853824,0.4408538341522217,0.022351311519742012,-0.10626830905675888,-0.11543664336204529,-0.46880024671554565,-0.824453592300415,-0.31702128052711487,0.005528181791305542,0.019949257373809814,-0.020213156938552856,-0.6222530705755304,-0.20412127357899776,0.5475617400453084,0.520875861284424,0.9692359657487595,-0.9761955670076032,-0.8487250804776141
1776284984129810688,0.45081067085266113,0.0020537106320261955,-0.11251792311668396,-0.11507391929626465,-0.4682005047798157,-0.8250322341918945,-0.3164018988609314,0.008453190326690674,0.02089405059814453,-0.020557940006256104,-0.6216432686049425,-0.20419269782370092,0.5478178413562447,0.521306706736106,0.9702592893187144,-0.9765089856378506,-0.8496648345421568
1776284984139766784,0.4607667922973633,-0.019983680918812752,-0.12003841996192932,-0.10220658779144287,-0.46766871213912964,-0.8255150318145752,-0.31592878699302673,0.004121929407119751,0.012587785720825195,-0.014393508434295654,-0.6210532242995231,-0.20416549129437223,0.5480438479567755,0.5217828351290484,0.9711141307557245,-0.9766759658945906,-0.850856188588573
1776284984149722624,0.47072267532348633,-0.06214407458901405,-0.1254955530166626,-0.09082051366567612,-0.4672606885433197,-0.8258390426635742,-0.31568557024002075,0.0015929639339447021,-0.014355659484863281,0.001919090747833252,-0.6205094384289498,-0.20398838291326193,0.5482207180443187,0.5223129811594872,0.9716884711825485,-0.9766283508205784,-0.8523877948054112
1776284984159679744,0.4806797504425049,-0.10419299453496933,-0.1344381868839264,-0.08823112398386002,-0.46693745255470276,-0.8259910345077515,-0.31576618552207947,-0.0017362236976623535,-0.034268975257873535,0.013337016105651855,-0.6200038846930259,-0.20363190071863715,0.5483164728277242,0.5229515410379583,0.9719580708985319,-0.9761888078951801,-0.8545013454370366
1776284984169635840,0.49063587188720703,-0.12098725885152817,-0.13835591077804565,-0.08401986211538315,-0.4666582942008972,-0.8260297775268555,-0.3160771429538727,-0.0006878376007080078,-0.041432321071624756,0.01496019959449768,-0.6195242175747298,-0.20315785418519614,0.5483505338648338,0.5236680868174671,0.972026806923639,-0.9754543280341097,-0.857031729194194
1776284984179591680,0.5005917549133301,-0.10876654833555222,-0.1437850296497345,-0.0824054554104805,-0.46641722321510315,-0.8260491490364075,-0.3163822889328003,0.0036638975143432617,-0.03701847791671753,0.012640833854675293,-0.6190379866641399,-0.20265547724205188,0.5483973146592774,0.5243882938050302,0.9720611750428922,-0.9747661948209891,-0.859571804285407
1776284984189548800,0.5105488300323486,-0.0738229975104332,-0.14592990279197693,-0.0802091434597969,-0.46620264649391174,-0.826137125492096,-0.3164689838886261,0.004563271999359131,-0.027546346187591553,0.0023668408393859863,-0.6185235849830949,-0.2022166520909807,0.5485197639087108,0.52503629647678,0.9722172729221105,-0.974425094621721,-0.8617264765212052
1776284984199504640,0.5205047130584717,-0.012863773852586746,-0.14488328993320465,-0.0787835568189621,-0.4660072922706604,-0.8263639211654663,-0.316164493560791,0.0026131272315979004,-0.01822531223297119,-0.006482601165771484,-0.6179626630435443,-0.20191331376067378,0.5487702281206387,0.5255515845341994,0.9726198912776296,-0.9746776175182822,-0.8631784131609922
1776284984209461760,0.5304617881774902,0.057129960507154465,-0.14382082223892212,-0.0659274160861969,-0.4658569097518921,-0.8267729878425598,-0.31531545519828796,0.0018676519393920898,-0.008920371532440186,-0.013450443744659424,-0.6173547450736143,-0.2018038352915716,0.5491971216348452,0.5258620912493556,0.9733467464645277,-0.9757765121189581,-0.8635854390418317
1776284984219417600,0.5404176712036133,0.10335098206996918,-0.13663427531719208,-0.039370108395814896,-0.46586307883262634,-0.8272780179977417,-0.31397855281829834,0.0066193342208862305,-0.00293731689453125,-0.018571466207504272,-0.6167462346296112,-0.2018331678946624,0.5497945973747095,0.5259403689942787,0.9742451229131602,-0.9777534020888834,-0.862895625768972
1776284984229373696,0.5503737926483154,0.10115499794483185,-0.1332363784313202,-0.015271961688995361,-0.4660656154155731,-0.8277321457862854,-0.31247735023498535,0.014268159866333008,-0.007427036762237549,-0.007621496915817261,-0.6161990628186984,-0.20187687144558666,0.5504607707459737,0.5258680749461757,0.9750539637065271,-0.9801736710632823,-0.8615999058367294
1776284984239330816,0.560330867767334,0.05375898256897926,-0.12253393232822418,0.0021304648835211992,-0.4664003252983093,-0.8280132412910461,-0.3112311065196991,0.014190852642059326,-0.019520938396453857,0.014554500579833984,-0.6157508358099665,-0.20180743348120123,0.5510519035579488,0.5258007994677253,0.9755550813449961,-0.9823521487588477,-0.8605004517188839
1776284984249286656,0.570286750793457,-0.024470200762152672,-0.10940380394458771,0.01970146968960762,-0.4668513238430023,-0.8280084729194641,-0.31056684255599976,0.012581944465637207,-0.03800404071807861,0.035908669233322144,-0.6154466641795266,-0.2015200414804186,0.5514582986852208,0.5258410081935336,0.9755465128620203,-0.983784067855015,-0.8601647778300505
1776284984259242752,0.5802428722381592,-0.10063154250383377,-0.09798257052898407,0.029414018616080284,-0.4673803448677063,-0.8276932239532471,-0.31061121821403503,0.014133363962173462,-0.05113661289215088,0.05221894383430481,-0.615293069079174,-0.2009843831193027,0.5516336361692668,0.5260417352980717,0.9749845647357307,-0.984240354154065,-0.8608568812758886
1776284984269199616,0.5901997089385986,-0.1495252102613449,-0.08425403386354446,0.02793969213962555,-0.46790197491645813,-0.8271642923355103,-0.31123489141464233,0.013632506132125854,-0.0520014762878418,0.060532957315444946,-0.615245849915053,-0.20027593334705165,0.551608656171029,0.526393500349034,0.9740426885038694,-0.9838298135992475,-0.8624514029043062
1776284984279155712,0.6001558303833008,-0.15554368495941162,-0.06634534150362015,0.03527083992958069,-0.4683975875377655,-0.8265371322631836,-0.3121541142463684,0.013212651014328003,-0.042023658752441406,0.05498248338699341,-0.6152751465733731,-0.19951764877545336,0.5514668226974041,0.5267956560795576,0.9729276135458204,-0.9829577488710364,-0.8644161810079393
1776284984289111552,0.6101117134094238,-0.14101620018482208,-0.04147697985172272,0.0405830480158329,-0.4688795804977417,-0.8258976340293884,-0.3131216764450073,0.012351840734481812,-0.027068674564361572,0.046092867851257324,-0.6153739735603767,-0.1988170954132339,0.551281172568368,0.5271392781778285,0.9717924357775599,-0.9820037878224049,-0.8662216554512495
1776284984299068672,0.6200687885284424,-0.10956426709890366,-0.018039561808109283,0.041085053235292435,-0.4693031311035156,-0.8253175616264343,-0.3140149712562561,0.0100288987159729,-0.012222051620483398,0.04222545027732849,-0.6155189204182308,-0.19824065875055363,0.5510836183292882,0.5273934630767875,0.9707643310760927,-0.9811047472914841,-0.8676804356268396
1776284984309024512,0.6300246715545654,-0.08206873387098312,0.008316410705447197,0.05370950326323509,-0.46970334649086,-0.8248032927513123,-0.3147672116756439,0.012916207313537598,0.0017747282981872559,0.03753030300140381,-0.6157203521617993,-0.1978088250098488,0.5508975003926662,0.5275150370365005,0.9698541744224033,-0.9803926306153266,-0.8686076742176714
1776284984318980608,0.6399807929992676,-0.07431653141975403,0.03693021088838577,0.0603192001581192,-0.4701029062271118,-0.8242949843406677,-0.31550133228302,0.01745089888572693,0.005966126918792725,0.03943932056427002,-0.6160074743805484,-0.19747568445168334,0.5506838325257677,0.527527757007346,0.9689558552486474,-0.9797083556714197,-0.8691672034324711
1776284984328937728,0.6499378681182861,-0.08613846451044083,0.06063069403171539,0.06243028864264488,-0.47044530510902405,-0.8237630724906921,-0.31637874245643616,0.010102927684783936,-0.002637624740600586,0.05154719948768616,-0.6163770405093265,-0.1971949572475658,0.5503860304871442,0.5275117461898784,0.968016959582533,-0.9787598921806773,-0.8697303351580653
1776284984338893568,0.6598937511444092,-0.10508579015731812,0.09238649904727936,0.07504834979772568,-0.4707604646682739,-0.8231427669525146,-0.31752216815948486,0.004696071147918701,-0.0160447359085083,0.05826011300086975,-0.6168599052271673,-0.196917229108779,0.5499659253986678,0.5274891323655857,0.9669237040083146,-0.977398643107206,-0.870453748981124
1776284984348849664,0.6698498725891113,-0.12228470295667648,0.12555401027202606,0.0873018205165863,-0.47108349204063416,-0.8223997950553894,-0.3189654052257538,0.004698574542999268,-0.024859726428985596,0.0691942572593689,-0.6174816980109186,-0.19662822857899037,0.54941299209412,0.5274457714245114,0.9656164615727201,-0.9756129772073499,-0.8713139539085472
1776284984358806528,0.6798067092895508,-0.1384735256433487,0.16765911877155304,0.0934542566537857,-0.471355140209198,-0.8215636610984802,-0.32071417570114136,-0.001026451587677002,-0.031127989292144775,0.07782477140426636,-0.6182454406724971,-0.19636699685452777,0.5487102313308422,0.5273800265314448,0.9641482785337798,-0.9733401981964288,-0.8723060825173459
1776284984368762624,0.6897628307342529,-0.16527307033538818,0.21664059162139893,0.10540652275085449,-0.4715452492237091,-0.8206176161766052,-0.3228495717048645,-0.009167641401290894,-0.035232603549957275,0.0894206166267395,-0.6191745534270385,-0.1961361639073445,0.5478191437282962,0.5273022721660378,0.9624908920505116,-0.9704379966745453,-0.8735162559455676
1776284984378718720,0.699718713760376,-0.21634185314178467,0.27770286798477173,0.13729441165924072,-0.47172945737838745,-0.8194472789764404,-0.32554158568382263,-0.013728827238082886,-0.04191124439239502,0.10615071654319763,-0.6203435381852128,-0.19587540254405303,0.5466827608615017,0.5272044535301559,0.9604459584279665,-0.9667440748259785,-0.8750309512329836
1776284984388675584,0.7096757888793945,-0.30698081851005554,0.34138888120651245,0.176802396774292,-0.4720022976398468,-0.817866325378418,-0.32910260558128357,-0.016462057828903198,-0.052586495876312256,0.12655743956565857,-0.6218509312150153,-0.1954629385289218,0.5451999018759068,0.5271173887578912,0.9576930678531093,-0.9619198030878199,-0.8771534165594523
1776284984398631680,0.7196316719055176,-0.42816290259361267,0.3912794589996338,0.21229247748851776,-0.472371906042099,-0.8157413005828857,-0.33381277322769165,-0.018381237983703613,-0.07077908515930176,0.14457327127456665,-0.6237153456639261,-0.19476510134802869,0.5432864504631505,0.5271485395262694,0.9540096110053049,-0.9556054443089789,-0.8803971693414334
1776284984408587776,0.7295877933502197,-0.5296729207038879,0.4230949878692627,0.25202420353889465,-0.472879022359848,-0.8130375742912292,-0.33964014053344727,-0.01430356502532959,-0.08333998918533325,0.14695215225219727,-0.6258911263146636,-0.19371479866784316,0.5409755184439898,0.527333313992263,0.9493505735540649,-0.9479340490836287,-0.8848224162503602
1776284984418544896,0.7395448684692383,-0.5660961270332336,0.4589049220085144,0.2872066795825958,-0.4735592305660248,-0.8098893165588379,-0.3461517095565796,0.005541622638702393,-0.07985067367553711,0.1314300298690796,-0.6283049485588158,-0.19242361936794086,0.538421111740742,0.5275497943921162,0.9439634012865492,-0.9395941476251046,-0.8897224798248757
1776284984428500736,0.7495007514953613,-0.5599063634872437,0.5166454911231995,0.320663183927536,-0.474310040473938,-0.8064895868301392,-0.35299375653266907,0.013280987739562988,-0.06542819738388062,0.11851191520690918,-0.6309453832076917,-0.19112099561226314,0.5357013047240802,0.5276408147880811,0.9381905134964621,-0.9310009943032114,-0.8943518762704646
1776284984438456832,0.7594568729400635,-0.5523166060447693,0.5835041403770447,0.36494648456573486,-0.47509828209877014,-0.802905261516571,-0.3600344657897949,-0.006011366844177246,-0.06414490938186646,0.12802457809448242,-0.6338309256576067,-0.18990922998649112,0.532838855645052,0.5275183481403302,0.9321530225470217,-0.9223151979220937,-0.8983458678083761
1776284984448413696,0.7694137096405029,-0.5950679183006287,0.6629857420921326,0.4368949830532074,-0.47602513432502747,-0.7989508509635925,-0.3675290048122406,-0.022830486297607422,-0.07282954454421997,0.131200909614563,-0.6370623681636981,-0.1886847344251522,0.5297485891345795,0.5271774114269439,0.9255486962595426,-0.9133137444413606,-0.9018450658943261
1776284984458369792,0.7793698310852051,-0.6694452166557312,0.7378847599029541,0.5191136598587036,-0.47723388671875,-0.7943464517593384,-0.3758474886417389,-0.015670746564865112,-0.08359837532043457,0.1581198275089264,-0.6407500098815372,-0.1872598948739528,0.5263173890333763,0.5266526657880051,0.9179309914642921,-0.9036906042171342,-0.9051692545221088
1776284984468325632,0.7893257141113281,-0.8329669833183289,0.830282986164093,0.5832353830337524,-0.4786055386066437,-0.7889100313186646,-0.385431706905365,-0.0072190165519714355,-0.1098935604095459,0.1786598563194275,-0.6449302605067063,-0.18550019209362625,0.5223732681280624,0.5260995189947597,0.9090332377560256,-0.8928185112155557,-0.9090393423414987
1776284984478282752,0.7992827892303467,-1.1264199018478394,0.9208362698554993,0.6398033499717712,-0.4799739420413971,-0.7822112441062927,-0.3972031772136688,-0.00907018780708313,-0.14028924703598022,0.2098863124847412,-0.6496888674616328,-0.18308389073010736,0.5175700027327372,0.5258381824115855,0.8982072661905651,-0.8794799838221279,-0.9149160101062515
1776284984488238592,0.8092386722564697,-1.494708776473999,0.981895387172699,0.703345537185669,-0.4813233017921448,-0.7737131714820862,-0.4119415581226349,-0.0005187392234802246,-0.16642659902572632,0.24200445413589478,-0.6550788181521556,-0.17960435700428806,0.5116361026670466,0.5261582993030012,0.8846814020606284,-0.862914626161143,-0.9239807202178649
1776284984498194688,0.8191947937011719,-1.7948139905929565,1.011217713356018,0.7647141218185425,-0.4827841520309448,-0.7632932066917419,-0.42930519580841064,0.018901705741882324,-0.19007593393325806,0.25097572803497314,-0.660968828906932,-0.17495612263710067,0.5047155234187519,0.5270415745805438,0.8683953234076915,-0.8439645817723271,-0.9357743917095764
1776284984508151808,0.8291518688201904,-2.029646635055542,1.0377238988876343,0.8388913869857788,-0.48433786630630493,-0.7510583400726318,-0.44869619607925415,0.036782294511795044,-0.19327759742736816,0.21883779764175415,-0.6672706400639002,-0.1693141562042702,0.4969754671856525,0.5282972949655919,0.8496635642803276,-0.8235793318240379,-0.9492152835846126
1776284984518107648,0.8391077518463135,-2.155761480331421,1.0577915906906128,0.8974758982658386,-0.485999196767807,-0.7372629642486572,-0.469306081533432,0.05023866891860962,-0.16418051719665527,0.19419008493423462,-0.6738633225102768,-0.16292737765561593,0.4886733402192765,0.5296804278236978,0.8290101381029497,-0.8028705092647647,-0.963044722278275
1776284984528063744,0.8490638732910156,-2.1405482292175293,1.07672917842865,0.9680227637290955,-0.487643301486969,-0.7224282026290894,-0.49020567536354065,0.05288991332054138,-0.12115395069122314,0.15435975790023804,-0.6806231806853464,-0.1562276966034804,0.48009380695309617,0.5309002448190048,0.8073077113512611,-0.7827777406558437,-0.9759463114776217
1776284984538020608,0.8590207099914551,-1.9602234363555908,1.1036111116409302,1.032714605331421,-0.4893600344657898,-0.7073235511779785,-0.5101179480552673,0.04964753985404968,-0.08770513534545898,0.12519967555999756,-0.6874068844312479,-0.14972763215826837,0.4717230925343757,0.5315363419406893,0.7857047597373645,-0.7646324334580046,-0.9862081839719761
1776284984547976704,0.8689768314361572,-1.7266850471496582,1.1565903425216675,1.1072903871536255,-0.49095839262008667,-0.6925666332244873,-0.528499186038971,0.03942030668258667,-0.062087297439575195,0.08976322412490845,-0.6942168275660348,-0.14388623653589522,0.46373178150456484,0.5313309875729001,0.7650410686629391,-0.7485905136975151,-0.9930336616521851
1776284984557933568,0.8789336681365967,-1.5019800662994385,1.2105484008789062,1.184957504272461,-0.49245527386665344,-0.6783539652824402,-0.5452739000320435,0.02303391695022583,-0.05544114112854004,0.08900564908981323,-0.7010856574783496,-0.1387991586054747,0.45617741611724794,0.5302035763357518,0.7455200397268497,-0.7345437491494651,-0.996342215657549
1776284984567889664,0.8888897895812988,-1.3705203533172607,1.2685120105743408,1.2657414674758911,-0.4938095510005951,-0.6644729375839233,-0.5609169006347656,0.01863563060760498,-0.06521761417388916,0.08487319946289062,-0.7080803718946035,-0.1342993559100498,0.4488933267868564,0.5282808098706078,0.7267883175155896,-0.7218584388468257,-0.9968297078242636
1776284984577845504,0.8988456726074219,-1.3636521100997925,1.3202927112579346,1.327759027481079,-0.494981586933136,-0.650390625,-0.5761816501617432,0.0319841206073761,-0.0792694091796875,0.09675049781799316,-0.7152488058300809,-0.13000336246792715,0.44159744101324944,0.5258422001295165,0.7080985935503433,-0.7097373591777003,-0.9956687241248884
1776284984587802624,0.9088027477264404,-1.4574168920516968,1.349758505821228,1.3670287132263184,-0.4958350658416748,-0.6355665922164917,-0.5917792916297913,0.050034284591674805,-0.0916825532913208,0.11094439029693604,-0.7225746978099232,-0.1255235493216125,0.43399791590417885,0.5232355572566225,0.6887421462091363,-0.6974106191452698,-0.9941419822238272
1776284984597758720,0.9187588691711426,-1.5845314264297485,1.357681393623352,1.4202748537063599,-0.4964459240436554,-0.6196177005767822,-0.607960045337677,0.06196713447570801,-0.10851645469665527,0.12149465084075928,-0.7300197889573048,-0.12056928355423367,0.42600823721437114,0.5206258420486538,0.6682555692973523,-0.6847671721796826,-0.9928093834353562
1776284984607714560,0.9287147521972656,-1.7495087385177612,1.3722561597824097,1.4937245845794678,-0.4969295561313629,-0.6022010445594788,-0.6248319745063782,0.0743526816368103,-0.12410205602645874,0.11625653505325317,-0.7376269982306507,-0.11496015492393237,0.4175741630796123,0.5179985441567387,0.6462552631491406,-0.6718692045494832,-0.9916774613501449
1776284984617671680,0.9386718273162842,-1.9417498111724854,1.3680691719055176,1.5670355558395386,-0.4973030090332031,-0.58297199010849,-0.6425211429595947,0.07875442504882812,-0.1277061104774475,0.12114357948303223,-0.745415555548969,-0.10852615286827025,0.40860922655110393,0.515379702075319,0.6223817527855307,-0.6586768592349155,-0.9908751077241845
1776284984627627520,0.9486277103424072,-2.0959668159484863,1.3469895124435425,1.6282211542129517,-0.4976060390472412,-0.5619418025016785,-0.6607645153999329,0.08635115623474121,-0.11316806077957153,0.11973357200622559,-0.7532903348569593,-0.10124639083147315,0.3992078696364794,0.5127728816555677,0.5967314298958161,-0.6454670110606389,-0.9903430647866145
1776284984637583616,0.9585838317871094,-2.1981754302978516,1.3223837614059448,1.6837999820709229,-0.49778226017951965,-0.5393908619880676,-0.6791688799858093,0.10473114252090454,-0.0814892053604126,0.10189837217330933,-0.7611686214527554,-0.09328801051301969,0.3895034246281926,0.5101046642921642,0.5697135214724278,-0.6324855812543726,-0.9897814832584815
1776284984647540480,0.9685406684875488,-2.240628480911255,1.2925506830215454,1.71829092502594,-0.4977648854255676,-0.5157215595245361,-0.6973244547843933,0.12380248308181763,-0.04210919141769409,0.09071123600006104,-0.7689701323840832,-0.08487555864623186,0.37964972768552707,0.5072939891571699,0.5418496694779759,-0.6199417465214382,-0.988876508031595
1776284984657496576,0.978496789932251,-2.2359275817871094,1.2640985250473022,1.7184487581253052,-0.4974042773246765,-0.491458535194397,-0.7148828506469727,0.131025493144989,-0.004925131797790527,0.07439517974853516,-0.776582287447494,-0.07627100108524706,0.36978547315861504,0.5043425926425388,0.5137637177664968,-0.6078910157785561,-0.9875422731870052
1776284984667452672,0.988452672958374,-2.1804773807525635,1.2452600002288818,1.6929916143417358,-0.4965217411518097,-0.46708494424819946,-0.7316404581069946,0.1306159794330597,0.02265748381614685,0.057278335094451904,-0.78392163159129,-0.06771552462597341,0.3599921958278409,0.5012853380817331,0.4859911187834682,-0.596247273185795,-0.9858048675492012
1776284984677409536,0.9984097480773926,-2.0602874755859375,1.2500165700912476,1.6575223207473755,-0.4949271082878113,-0.44317594170570374,-0.7474237084388733,0.12387913465499878,0.03436249494552612,0.051821351051330566,-0.7909674713955364,-0.059530600831461014,0.3503487567102894,0.49807854221277864,0.4591384336795812,-0.584888225437923,-0.9834702322548442
1776284984687365888,1.0083658695220947,-1.906305193901062,1.2471681833267212,1.6179957389831543,-0.4925755262374878,-0.42022427916526794,-0.7620897889137268,0.10623827576637268,0.028393834829330444,0.04166132211685181,-0.7977124293192115,-0.05195827911789232,0.34096251558192087,0.4946713022790557,0.4336924607981162,-0.573803916032437,-0.980334683142517
1776284984697321728,1.0183217525482178,-1.7444456815719604,1.2181782722473145,1.589410662651062,-0.48965194821357727,-0.3984081447124481,-0.7755720019340515,0.09687545895576477,0.029252290725708008,0.028883159160614014,-0.8041540173054186,-0.045023165054966376,0.33194416250852754,0.49104195651699967,0.40978064147691723,-0.5631475761702276,-0.9763251984190626
1776284984707278848,1.0282788276672363,-1.5299068689346313,1.1603142023086548,1.5623944997787476,-0.48646220564842224,-0.3779321312904358,-0.7877320647239685,0.11402568221092224,0.05476623773574829,0.02293109893798828,-0.8102798649315281,-0.038737341195975286,0.32347082205483874,0.4871474307412511,0.38756175780996993,-0.5532224504277199,-0.9713082180661391
1776284984717234688,1.0382347106933594,-1.1906070709228516,1.0883116722106934,1.5080348253250122,-0.48324134945869446,-0.3597474694252014,-0.7981600761413574,0.13976603746414185,0.09288650751113892,0.0014834403991699219,-0.8160243538885817,-0.03348395797694385,0.3159094442208614,0.48289156338790307,0.36799721973821803,-0.5444129372183871,-0.9648762884459219
1776284984727190784,1.0481908321380615,-0.9061865210533142,1.086993932723999,1.4231287240982056,-0.47971656918525696,-0.3444080948829651,-0.8070037364959717,0.15558937191963196,0.13263139128684998,-0.062442004680633545,-0.8213858134164048,-0.02956016009020187,0.30923183172098806,0.4783587589740184,0.3516082428344386,-0.5363223810932877,-0.9571806193851788
1776284984737147648,1.058147668838501,-0.7480067014694214,1.0942981243133545,1.320505976676941,-0.47551587224006653,-0.3312705457210541,-0.8149505853652954,0.15083935856819153,0.17061075568199158,-0.07443845272064209,-0.8264148378147891,-0.026697042624670386,0.3030049133610319,0.4738287542483902,0.3376498364496896,-0.528191647813565,-0.9490767257439343
1776284984747103744,1.0681037902832031,-0.6615411639213562,1.075413703918457,1.2334411144256592,-0.4707937240600586,-0.3195412755012512,-0.8223421573638916,0.1329793930053711,0.17824488878250122,-0.0691220760345459,-0.8311188209338114,-0.024445461448370877,0.29703760267949775,0.4694811704747561,0.3252453569699577,-0.5199560234667376,-0.9411588133399794
1776284984757059584,1.0780596733093262,-0.5540347099304199,1.042847752571106,1.1814000606536865,-0.4658541977405548,-0.30889880657196045,-0.8291931748390198,0.1158633828163147,0.15451040863990784,-0.07423388957977295,-0.8355456328688428,-0.022610599406627567,0.2913625897748497,0.4652526231327893,0.31403498414731223,-0.5118698846944969,-0.933326498981424
1776284984767016704,1.0880167484283447,-0.3989362120628357,1.018454909324646,1.1429604291915894,-0.46083682775497437,-0.29958245158195496,-0.8353919982910156,0.09332889318466187,0.11281487345695496,-0.07947921752929688,-0.8397574709476431,-0.02132496433106023,0.2860930895328433,0.46098079841039885,0.3042549601017579,-0.5041025468530352,-0.9251426019498296
1776284984776972800,1.0979728698730469,-0.28455212712287903,0.9969050884246826,1.0753593444824219,-0.45569050312042236,-0.29170462489128113,-0.8409842848777771,0.060396283864974976,0.06753775477409363,-0.0822334885597229,-0.8437549501646451,-0.020649820704352805,0.2812142351770977,0.45669425616487563,0.29600849134777846,-0.4965673977758787,-0.9166635512756826
1776284984786929408,1.1079294681549072,-0.26166000962257385,0.9603201150894165,0.990929365158081,-0.4504242241382599,-0.2847982943058014,-0.8461725115776062,0.030899137258529663,0.04126805067062378,-0.0657232403755188,-0.8474813020690496,-0.02030788913988961,0.276588759059601,0.4526163254650237,0.28879599556122276,-0.4891585784024582,-0.9085150693603884
1776284984796886528,1.1178865432739258,-0.2673269510269165,0.8888835310935974,0.9232664704322815,-0.4452832043170929,-0.2783028185367584,-0.851040780544281,0.032914429903030396,0.045545220375061035,-0.04942607879638672,-0.8509157647012554,-0.01996097050681826,0.27217853904334344,0.4488461883175415,0.2820266560937506,-0.4820520963695887,-0.9010296195764117
1776284984806842368,1.1278424263000488,-0.25385937094688416,0.8272821307182312,0.8822212815284729,-0.4404617249965668,-0.2720949053764343,-0.8555453419685364,0.05825960636138916,0.0663149356842041,-0.06457489728927612,-0.8541017191694127,-0.019543436283780205,0.26803991635341057,0.44528955289327704,0.2755694169016734,-0.4754423346993586,-0.8939975411545444
1776284984816798464,1.137798547744751,-0.19939403235912323,0.7567813396453857,0.845752477645874,-0.4360126554965973,-0.2663686275482178,-0.8596165776252747,0.07526439428329468,0.08413293957710266,-0.08857977390289307,-0.8570833842081208,-0.019173534430319984,0.2642424633426787,0.4418328240475535,0.269623567568634,-0.46940499493292615,-0.8871125667201043
1776284984826755584,1.1477556228637695,-0.14376938343048096,0.6942444443702698,0.7959745526313782,-0.43195486068725586,-0.2613691985607147,-0.8631923794746399,0.06337881088256836,0.09590291976928711,-0.11365997791290283,-0.8598447564626011,-0.01896431681897019,0.2608527474603395,0.43847815022003994,0.264440437006725,-0.46397995545401033,-0.8803340000882363
1776284984836711424,1.1577115058898926,-0.09874677658081055,0.6386964917182922,0.7564346194267273,-0.42821094393730164,-0.2570107877254486,-0.8663606643676758,0.044330328702926636,0.1112130880355835,-0.12007427215576172,-0.8624049682841904,-0.018898215468362938,0.25780326751580823,0.43524461944443654,0.25992782284790317,-0.4590483409569424,-0.8737251136504979
1776284984846668544,1.1676685810089111,-0.010142608545720577,0.5770816206932068,0.7238777279853821,-0.4248431622982025,-0.2533724308013916,-0.8690861463546753,0.035499900579452515,0.1266329288482666,-0.11229813098907471,-0.8647822718040029,-0.01901726907742167,0.25513774456205646,0.432081960766677,0.25616485862940896,-0.4546789668623094,-0.8671537881553867
1776284984856624384,1.1776244640350342,0.1604730784893036,0.5200686454772949,0.6879503726959229,-0.42186108231544495,-0.2509993612766266,-0.8712247610092163,0.029099881649017334,0.1404646635055542,-0.11727011203765869,-0.8669838684990853,-0.019601067538702947,0.25298897449458735,0.42889562360104067,0.2537125137043114,-0.45094098417360085,-0.8603032623315622
1776284984866580480,1.1875805854797363,0.40228649973869324,0.4804602265357971,0.6494245529174805,-0.4192158579826355,-0.2506285309791565,-0.8726072311401367,0.015742987394332886,0.1482420563697815,-0.12429523468017578,-0.8690038831257966,-0.02102875415879073,0.251503811531259,0.4256007090336236,0.25332946195651457,-0.447859314440239,-0.8528495133270414
1776284984876537344,1.1975374221801758,0.624337911605835,0.4703141450881958,0.614429235458374,-0.41666945815086365,-0.2524978816509247,-0.8732876777648926,-0.0042137205600738525,0.14771577715873718,-0.13234281539916992,-0.8708745915107359,-0.023483653929635414,0.2506085880323657,0.4221627892764535,0.2552609131529068,-0.4451826354360143,-0.8446828925201844
1776284984886493440,1.207493543624878,0.7797321081161499,0.43617039918899536,0.5831445455551147,-0.41423365473747253,-0.25616469979286194,-0.873378574848175,-0.023006945848464966,0.13977065682411194,-0.11728304624557495,-0.8726052275758021,-0.0267542529838678,0.25018977371763707,0.4186279885818868,0.2590524000349914,-0.442867877537148,-0.8359945303282413
1776284984896449280,1.217449426651001,0.8675653338432312,0.4005271792411804,0.564879298210144,-0.41207921504974365,-0.26101112365722656,-0.8729627132415771,-0.025924324989318848,0.12374305725097656,-0.09836602210998535,-0.8741963629283696,-0.030509772175266594,0.25017552241103624,0.4150447394085884,0.2640694962989116,-0.4410359988545065,-0.8270025652840515
1776284984906406400,1.2274065017700195,0.8759573698043823,0.3786816895008087,0.5551909804344177,-0.4101545810699463,-0.26633819937705994,-0.8722598552703857,-0.01866316795349121,0.10766205191612244,-0.07964444160461426,-0.875694504441483,-0.03443633466018888,0.2503681713282867,0.41144761738544533,0.26959199707534726,-0.43954158145339156,-0.8179108868307419
1776284984916362496,1.2373626232147217,0.8279294371604919,0.34817036986351013,0.5305215716362,-0.4084727466106415,-0.27156367897987366,-0.8714374303817749,-0.00900772213935852,0.08867183327674866,-0.0480419397354126,-0.8770968620332674,-0.03823420454317362,0.2506380571287717,0.40794579007212806,0.27501739897752303,-0.4383238124975464,-0.8090680328520383
1776284984926318336,1.2473185062408447,0.7219722867012024,0.32435205578804016,0.5141423344612122,-0.4069657325744629,-0.27619484066963196,-0.8706867098808289,-0.006181240081787109,0.06722572445869446,-0.031046688556671143,-0.8784188046803236,-0.04166654084015136,0.2508397017170897,0.40462789848959796,0.2798326673338317,-0.437235566183578,-0.8007621374759367
1776284984936275456,1.2572755813598633,0.5874610543251038,0.3032861649990082,0.5145431160926819,-0.40568360686302185,-0.2798076868057251,-0.870131254196167,-0.008439898490905762,0.038047462701797485,-0.016205966472625732,-0.8796950512738129,-0.044522828750932705,0.2509025231299647,0.40149985999470417,0.2835937817884068,-0.436270683812073,-0.7930742741321309
1776284984946231296,1.2672314643859863,0.440847784280777,0.2976571023464203,0.5344537496566772,-0.4045511782169342,-0.28217053413391113,-0.8698955178260803,-0.014302581548690796,0.002171754837036133,-0.014763295650482178,-0.8809933299296856,-0.046729102730961494,0.25073619997834756,0.3984954940045809,0.2860558440027198,-0.43530470371534696,-0.7858956218318018
1776284984956187392,1.2771875858306885,0.26014620065689087,0.29329192638397217,0.5519208908081055,-0.40351930260658264,-0.2830505669116974,-0.8700888156890869,-0.02818235754966736,-0.03128048777580261,-0.005674123764038086,-0.8823510934170303,-0.048188541059626645,0.2502667464560878,0.39560217877424375,0.2869732594720491,-0.43424415900027236,-0.7792394416588118
1776284984966144256,1.287144422531128,0.04250270500779152,0.2788637578487396,0.5549312829971313,-0.40259313583374023,-0.28213682770729065,-0.870814323425293,-0.038691043853759766,-0.04736146330833435,0.005228996276855469,-0.8837589514884078,-0.0487267018180561,0.24943646864172084,0.39290865583726653,0.2860206809489177,-0.43305023494344774,-0.773360118419053
1776284984976100352,1.29710054397583,-0.11987262219190598,0.23378151655197144,0.5438951849937439,-0.4018997848033905,-0.27954915165901184,-0.8719683885574341,-0.029206782579421997,-0.03971049189567566,0.018803715705871582,-0.8851607591845083,-0.04835130822396559,0.2483504953224753,0.3904799710700928,0.2833245057760042,-0.4318903600464801,-0.7683730302329496
1776284984986056448,1.3070564270019531,-0.18532072007656097,0.19478556513786316,0.5295860171318054,-0.4015338122844696,-0.27603188157081604,-0.873256504535675,-0.011246919631958008,-0.01562461256980896,0.006786167621612549,-0.8865015164217924,-0.04740649049500393,0.24723341701262302,0.3882566584694787,0.2796631403861331,-0.4309835610638527,-0.764003058455209
1776284984996013312,1.3170135021209717,-0.18278725445270538,0.17891952395439148,0.5086788535118103,-0.4013327956199646,-0.2723301649093628,-0.8745102882385254,-0.0028725266456604004,0.014563441276550293,-0.01538228988647461,-0.8877730382566715,-0.046300930475149285,0.24617286442517747,0.386152880969993,0.27581389197235995,-0.430249378179123,-0.7599330652486902
1776284985005969408,1.3269696235656738,-0.13369198143482208,0.16780780255794525,0.4950757324695587,-0.40118300914764404,-0.2689386308193207,-0.875627875328064,-0.00836285948753357,0.038820862770080566,-0.02126842737197876,-0.8889802581324585,-0.045312440956281404,0.24521998170418033,0.3840937181869028,0.27229090253070093,-0.429624053419049,-0.7559123073404291
1776284985015925504,1.3369255065917969,-0.05260910838842392,0.1744300276041031,0.4964398145675659,-0.40101200342178345,-0.2661457061767578,-0.8765590786933899,-0.016819387674331665,0.05383491516113281,-0.027402102947235107,-0.8901527034507322,-0.044620125626119174,0.24439620551815314,0.3819786353753079,0.26939230535199404,-0.42906041370881526,-0.7516668176299156
1776284985025882368,1.3468825817108154,0.027719391509890556,0.19092757999897003,0.514757513999939,-0.4007445275783539,-0.2640268802642822,-0.8773218393325806,-0.022412210702896118,0.05733132362365723,-0.023755431175231934,-0.8913377167622258,-0.044303149917948266,0.2436725346673433,0.3797078131184144,0.2671948485790204,-0.428479228842959,-0.7469632112678677
1776284985035838464,1.3568384647369385,0.0786142647266388,0.1960539072751999,0.5233954787254333,-0.4004136621952057,-0.2624419629573822,-0.8779482841491699,-0.02069839835166931,0.0508788526058197,-0.010891437530517578,-0.8925400069520443,-0.04428689720020936,0.24303198023022696,0.37728844798033345,0.26555201352473246,-0.42789761564113515,-0.7418415582774984
1776284985045794560,1.3667945861816406,0.10413794219493866,0.19275973737239838,0.5099688768386841,-0.4000650644302368,-0.2611817717552185,-0.8784828186035156,-0.011113494634628296,0.041165292263031006,0.004154205322265625,-0.8937256054365739,-0.044434417842765805,0.24245450427354134,0.37482788809142115,0.264246268877522,-0.42733927044650394,-0.7365778739344682
1776284985055751424,1.37675142288208,0.12333214282989502,0.18082237243652344,0.47669193148612976,-0.39971625804901123,-0.2602081000804901,-0.878930389881134,-0.0006438493728637695,0.030166596174240112,0.016228973865509033,-0.8948462471660472,-0.044692413095948985,0.2419450224334406,0.37244497465604687,0.26323771238509897,-0.4268183705477915,-0.731443734437834
1776284985065707520,1.3867075443267822,0.14075295627117157,0.17249919474124908,0.4258894622325897,-0.3993397653102875,-0.25956395268440247,-0.8792919516563416,0.005815625190734863,0.027462512254714966,0.016895711421966553,-0.8958664190439147,-0.045063537677052505,0.24150219577063037,0.37022880411493797,0.26257065868809215,-0.42630851375678,-0.7266310249980151
1776284985075663360,1.3966634273529053,0.16309581696987152,0.1645541936159134,0.374504029750824,-0.39890024065971375,-0.25929710268974304,-0.8795701265335083,0.009541749954223633,0.028980940580368042,0.0171891450881958,-0.8967701749740895,-0.04556659022554135,0.2411195276102241,0.3682231535259156,0.2622943434702484,-0.42577505260455556,-0.722229118552931
1776284985085620480,1.4066205024719238,0.21721886098384857,0.1561659425497055,0.3338114619255066,-0.39842525124549866,-0.259539395570755,-0.8797139525413513,0.013323962688446045,0.039370328187942505,0.01649373769760132,-0.8975653257672628,-0.04627242863825831,0.2408358097361881,0.36637897492914645,0.2625452381517079,-0.4252655963362548,-0.7181019343497065
1776284985095576576,1.416576623916626,0.3048784136772156,0.15637873113155365,0.2991168797016144,-0.3978726267814636,-0.26055172085762024,-0.8796647787094116,0.014953315258026123,0.05422237515449524,0.004725813865661621,-0.8982682350456564,-0.04733487818177668,0.24068030819061478,0.36461828006795777,0.26359361192969677,-0.4247651872052514,-0.7140300362717755
1776284985105533440,1.4265334606170654,0.43169650435447693,0.15656039118766785,0.26949426531791687,-0.39725664258003235,-0.26263636350631714,-0.8793231844902039,0.014489918947219849,0.07141321897506714,-0.008784115314483643,-0.8988806634224619,-0.04891437965264188,0.24071929432962585,0.36287077357156,0.26575348158460615,-0.4243294120296334,-0.7098014432717988
1776284985115489536,1.4364895820617676,0.5662380456924438,0.1716621071100235,0.2493053674697876,-0.3965054750442505,-0.2659933865070343,-0.8786529302597046,0.010107159614562988,0.0775168240070343,-0.02897036075592041,-0.8994205138954076,-0.05114034508772396,0.24095271636619117,0.36106674386285526,0.2692342763188162,-0.4239055657183582,-0.7052295926965361
1776284985125445376,1.4464454650878906,0.6590929627418518,0.1789194643497467,0.23514693975448608,-0.3956151604652405,-0.2704237401485443,-0.8777013421058655,0.0021520256996154785,0.07462295889854431,-0.03848212957382202,-0.8999046847305691,-0.05392334186126417,0.24133296368137547,0.3591966888988306,0.27383314206358794,-0.42346918957872726,-0.7003308198942363
1776284985135402496,1.4564025402069092,0.7116525769233704,0.18264229595661163,0.2224913239479065,-0.3946681618690491,-0.27553918957710266,-0.8765358924865723,-0.0024723410606384277,0.06609705090522766,-0.038243770599365234,-0.9003359338816463,-0.05705348050267658,0.24182006262917005,0.35729994594790304,0.279150557798161,-0.4230692786121965,-0.695258149195338
1776284985145358336,1.4663584232330322,0.7427492737770081,0.1783706694841385,0.21796368062496185,-0.39369258284568787,-0.28102678060531616,-0.8752314448356628,0.0009008646011352539,0.05045121908187866,-0.03164416551589966,-0.9007323471364992,-0.06037568372470807,0.24236141733216,0.35538270190889226,0.28486383179305086,-0.42270041046797296,-0.6900800468247256
1776284985155314432,1.4763145446777344,0.73692387342453,0.1701982319355011,0.21393272280693054,-0.3927841782569885,-0.28666308522224426,-0.8738105297088623,0.003944456577301025,0.024272948503494263,-0.027632951736450195,-0.9010933602150119,-0.06376078179695108,0.2429594514318542,0.35346277134821286,0.290741909207224,-0.4224440801684286,-0.6848688735190528
1776284985165271552,1.486271619796753,0.6748703122138977,0.1554933786392212,0.2036888748407364,-0.39196640253067017,-0.29200777411460876,-0.8724068999290466,0.0028062760829925537,0.00073280930519104,-0.01965242624282837,-0.9014279678946924,-0.06697472868644343,0.243538388610246,0.3516119197846849,0.2963254501232116,-0.4222659243898327,-0.6798603643709665
1776284985175227392,1.496227502822876,0.5931099057197571,0.132720947265625,0.1911773383617401,-0.391305148601532,-0.29673296213150024,-0.8711084127426147,0.0033962130546569824,-0.012928903102874756,-0.002701401710510254,-0.9017310020272195,-0.06982633868814302,0.244069845798924,0.34990768168225106,0.30126971849750744,-0.42219156210492403,-0.6752789599355147
1776284985185183488,1.5061836242675781,0.5152413249015808,0.11214464157819748,0.1794051080942154,-0.39080458879470825,-0.30081820487976074,-0.869931161403656,0.004650413990020752,-0.021432161331176758,0.0017822980880737305,-0.9020048470531189,-0.07230204213356992,0.24455438300932658,0.34835733986042966,0.30555049068572093,-0.4222185921462679,-0.6711424406999555
1776284985195140352,1.5161404609680176,0.43663573265075684,0.09599044173955917,0.17138099670410156,-0.39042210578918457,-0.30424821376800537,-0.8689094185829163,0.002986222505569458,-0.02448713779449463,-0.0021690726280212402,-0.9022645461182034,-0.07440483198104138,0.24496775608262303,0.34694876353562687,0.3091491195256392,-0.4222918600829794,-0.6674295466237747
1776284985205096448,1.5260965824127197,0.3776489198207855,0.07953421771526337,0.1658852994441986,-0.3901837170124054,-0.30710411071777344,-0.8680113554000854,0.0040142834186553955,-0.019830703735351562,-0.0020447969436645508,-0.9025071649035334,-0.07617165313011469,0.24534097238596697,0.34566827705118364,0.3121485928816371,-0.4224501338701266,-0.6640920567469534
1776284985215052288,1.5360524654388428,0.3276650905609131,0.07533440738916397,0.16089586913585663,-0.39002034068107605,-0.30951616168022156,-0.8672277331352234,0.0036220550537109375,-0.014214277267456055,-0.006490528583526611,-0.9027471300122443,-0.07768919733738777,0.24566345808912288,0.3444727769481543,0.3146841503379719,-0.4226313079461309,-0.6610168750345111
1776284985225009408,1.5460095405578613,0.2783700227737427,0.06831774860620499,0.15487845242023468,-0.3898923695087433,-0.311514288187027,-0.8665695786476135,0.00047281384468078613,-0.007272273302078247,-0.006050050258636475,-0.9029869993052666,-0.07897811107325785,0.24592210780113216,0.34336458876989584,0.3167862140032562,-0.4227925662744681,-0.65820759925575
1776284985234965248,1.5559654235839844,0.2373323291540146,0.07153511047363281,0.1476636826992035,-0.38975751399993896,-0.31315332651138306,-0.8660393357276917,0.00047528743743896484,-0.0028867125511169434,-0.00477975606918335,-0.9032268921149473,-0.0800714824636471,0.24610749991024072,0.342346122051311,0.31851155598928116,-0.42289215333087254,-0.6556639762180797
1776284985244921344,1.5659215450286865,0.18672998249530792,0.07991376519203186,0.14904533326625824,-0.38957104086875916,-0.31442275643348694,-0.8656631708145142,-0.0027629435062408447,-0.006713747978210449,-0.00291287899017334,-0.903485211185004,-0.08097989586933005,0.2461923255091919,0.3413885218737398,0.31984849684619104,-0.4228756373337567,-0.653328896840147
1776284985254878464,1.575878620147705,0.10471553355455399,0.09085908532142639,0.15079264342784882,-0.3892988860607147,-0.3151160478591919,-0.8655335307121277,-0.006422519683837891,-0.011254191398620605,0.0017792582511901855,-0.9037841455610777,-0.08160671731883486,0.2461170022738128,0.3405013228530537,0.32057892529937904,-0.4226702168389042,-0.6512655598525308
1776284985264834304,1.5858345031738281,0.036099135875701904,0.08310572057962418,0.15551522374153137,-0.3890319764614105,-0.3151143193244934,-0.8656541109085083,-0.00520932674407959,-0.016230255365371704,0.013099849224090576,-0.9041212730787543,-0.08187471060763864,0.24590539713515897,0.33969362936202596,0.32057711778297704,-0.42236157935678326,-0.6495066654126346
1776284985274790400,1.5957906246185303,-0.017333196476101875,0.09115805476903915,0.16247566044330597,-0.3887842297554016,-0.3145826458930969,-0.8659587502479553,-0.006082683801651001,-0.026039302349090576,0.008033335208892822,-0.9044911584954817,-0.08186981548108153,0.24559714249255582,0.33893228447829343,0.3200169494964442,-0.42199199102271756,-0.6479469699334425
1776284985284747264,1.6057474613189697,-0.0803455039858818,0.08446236699819565,0.16668318212032318,-0.38853466510772705,-0.31352952122688293,-0.8664525747299194,-0.007751345634460449,-0.030678242444992065,0.0034917593002319336,-0.9048961732979989,-0.08160057139461387,0.24518375356351949,0.3382145478199451,0.31890769047889883,-0.4215392477708709,-0.6465807386254694
1776284985294703360,1.6157035827636719,-0.12473694235086441,0.06545032560825348,0.17400901019573212,-0.3884190618991852,-0.3119710385799408,-0.8670666813850403,-0.0027552545070648193,-0.026240020990371704,0.010957121849060059,-0.9053165110987139,-0.08104927623412236,0.24473998714480216,0.3375430314538619,0.31726691756360587,-0.42116371951171294,-0.645396494693516
1776284985304659456,1.625659465789795,-0.1367562711238861,0.054902583360672,0.1843833476305008,-0.3884623646736145,-0.31013378500938416,-0.8677061796188354,0.005237877368927002,-0.016617923974990845,0.004699587821960449,-0.9057432336813045,-0.08033365822801447,0.24432233593952268,0.3368714695215788,0.3153337512469574,-0.42093029119829256,-0.6442477807703185
1776284985314616320,1.6356165409088135,-0.13070183992385864,0.05018266290426254,0.18920233845710754,-0.38858893513679504,-0.3082523047924042,-0.8683197498321533,0.008996009826660156,-0.006658583879470825,-0.00634455680847168,-0.9061730338350635,-0.07958914627808018,0.24393790524229833,0.33617003746776386,0.31335532909782127,-0.42078818873981055,-0.6430334694469055
1776284985324572416,1.6455724239349365,-0.11867542564868927,0.041632793843746185,0.18402835726737976,-0.3887595534324646,-0.30645278096199036,-0.8688801527023315,0.0064048171043396,0.0018415749073028564,-0.009568333625793457,-0.9065903934979467,-0.07887803338690763,0.2435943020356169,0.33546071085949525,0.3114642570909403,-0.4207113046751452,-0.6417831589116411
1776284985334528512,1.6555285453796387,-0.09566012024879456,0.03126457706093788,0.1763877421617508,-0.3889841139316559,-0.3048241436481476,-0.869352400302887,0.004310041666030884,0.012511521577835083,-0.007356584072113037,-0.9069781083964361,-0.07823618389728186,0.24331646791049394,0.33476390103930226,0.309753788925804,-0.42072402976043183,-0.6405245757160355
1776284985344485632,1.6654856204986572,-0.04941459372639656,0.022392254322767258,0.16519181430339813,-0.3892681896686554,-0.3035174310207367,-0.8696823716163635,0.008637696504592896,0.022969335317611694,-0.005973756313323975,-0.9073250052087904,-0.0777385095665374,0.24313687823657149,0.33406953109560217,0.3083820744251767,-0.4208547380451346,-0.6392070662779109
1776284985354441472,1.6754415035247803,0.017293544486165047,0.023509344086050987,0.14232538640499115,-0.38954484462738037,-0.302783340215683,-0.869814395904541,0.011615157127380371,0.030642837285995483,-0.008878231048583984,-0.9076133893665864,-0.07751682974612632,0.24307191091492894,0.33338431219072684,0.30761174040330674,-0.42106309513532275,-0.6378055178198202
1776284985364398592,1.6853985786437988,0.07666441053152084,0.033810876309871674,0.11686769872903824,-0.38969457149505615,-0.302702397108078,-0.8697754740715027,0.006164908409118652,0.0340408980846405,-0.014349281787872314,-0.9078428758895806,-0.07762602787507404,0.24307705300457919,0.3327297195577146,0.30752679753757484,-0.4212231356103179,-0.6363635523248812
1776284985374354432,1.6953544616699219,0.11974343657493591,0.039288733154535294,0.09880667924880981,-0.3896861970424652,-0.30313435196876526,-0.8696287870407104,-0.00128975510597229,0.03519001603126526,-0.00978100299835205,-0.9080280552204033,-0.07800178388890075,0.2431076457580596,0.3321136598694826,0.3079800573447316,-0.42127807605295586,-0.6349272067026951
1776284985384310528,1.705310583114624,0.16880902647972107,0.04306880012154579,0.09847857803106308,-0.3896414637565613,-0.3040127158164978,-0.8693421483039856,-0.000510483980178833,0.0332912802696228,-0.0018889307975769043,-0.9081783178225372,-0.07860351867001902,0.2432085606703541,0.33148647544958176,0.3089019258598171,-0.4213582567602938,-0.6333872402585391
1776284985394267392,1.7152674198150635,0.18101562559604645,0.05798250064253807,0.1085599735379219,-0.38950982689857483,-0.3051619827747345,-0.8689984083175659,-0.001176208257675171,0.019105464220046997,-0.006367802619934082,-0.9083401309257895,-0.0793728252845367,0.24331203917277952,0.33078293778224704,0.3101085256353693,-0.4213797417410388,-0.6316375173690928
1776284985404223488,1.7252235412597656,0.13917125761508942,0.05811073258519173,0.1080600917339325,-0.38933065533638,-0.3061516284942627,-0.8687306046485901,-0.004819095134735107,0.002486497163772583,0.003450453281402588,-0.9085260364735928,-0.08007609484844982,0.2433567964176844,0.3300692722032632,0.31114791740810455,-0.4213230717504145,-0.6299002663450545
1776284985414179328,1.7351794242858887,0.07313177734613419,0.0462852343916893,0.10534659773111343,-0.3891960084438324,-0.3066466450691223,-0.8686162829399109,-0.003916144371032715,-0.010781913995742798,0.019815683364868164,-0.9087239762912895,-0.08050960166785294,0.2433311606724138,0.3294371361599755,0.3116679457929839,-0.42124308829612267,-0.6284303419864546
1776284985424136448,1.7451364994049072,0.026857540011405945,0.0436907522380352,0.11418350040912628,-0.3891420364379883,-0.30664029717445374,-0.8686427474021912,0.002789527177810669,-0.017975151538848877,0.023275315761566162,-0.9089379792720474,-0.08066888322740602,0.2432512531649761,0.32886630461210736,0.3116612772604149,-0.4211799999175082,-0.6271808437802834
1776284985434092544,1.7550926208496094,-0.023042375221848488,0.049914292991161346,0.13562540709972382,-0.3891179859638214,-0.30618879199028015,-0.8688127398490906,-0.0009424388408660889,-0.03032854199409485,0.015831172466278076,-0.909198371844512,-0.08061193642235884,0.24309533993317847,0.3282751598518955,0.31118696284353087,-0.42108390754844055,-0.625966904796083
1776284985444048384,1.7650485038757324,-0.11115103214979172,0.053490836173295975,0.161503866314888,-0.38910728693008423,-0.30504485964775085,-0.8692198395729065,-0.012275159358978271,-0.040673524141311646,0.014361441135406494,-0.9095325637139511,-0.08022258695535556,0.24280528390442216,0.32765916825490443,0.30998553941034246,-0.4208989256128722,-0.624826587433599
1776284985454005504,1.775005578994751,-0.17661632597446442,0.03763650730252266,0.1861783266067505,-0.38923507928848267,-0.3030979633331299,-0.8698434829711914,-0.011659085750579834,-0.03587603569030762,0.024033546447753906,-0.9099306980090505,-0.07942211100334381,0.2424260302324996,0.3270291034087149,0.30794187313398436,-0.4207539440271236,-0.6237915654429257
1776284985463961344,1.784961462020874,-0.18080754578113556,0.023394029587507248,0.1905706822872162,-0.3895445764064789,-0.3007888197898865,-0.870506227016449,0.0007506310939788818,-0.023643553256988525,0.018943727016448975,-0.9103455287066197,-0.07841835092920232,0.2420690821520405,0.3263804412142171,0.30551966754997056,-0.42076631622844485,-0.6227659252230568
1776284985473917440,1.7949175834655762,-0.14972339570522308,0.02129705622792244,0.18005065619945526,-0.38990432024002075,-0.2986292541027069,-0.8710885047912598,0.005016624927520752,-0.01025441288948059,-0.0037436485290527344,-0.9107370568892499,-0.07747776557656533,0.24177041133791718,0.3257336324468233,0.30325604474842566,-0.4208611630507768,-0.6217128670438915
1776284985483874304,1.8048744201660156,-0.10902215540409088,0.024247627705335617,0.16959695518016815,-0.3902221918106079,-0.2968212962150574,-0.8715639710426331,-0.00298154354095459,0.004279792308807373,-0.018847405910491943,-0.9110969438623374,-0.07671395307813723,0.24152220662821072,0.32509144086424324,0.301362209704059,-0.42096157507843823,-0.6206096336965617
1776284985493830400,1.8148305416107178,-0.05750809982419014,0.02047659084200859,0.17396453022956848,-0.39053237438201904,-0.2954249382019043,-0.871899425983429,-0.007157444953918457,0.017425060272216797,-0.021517932415008545,-0.9114308706639997,-0.0761610395082273,0.24134993859814285,0.3244125317761589,0.2999002750920817,-0.4211144404520334,-0.6193507459823345
1776284985503786240,1.8247864246368408,0.01945539191365242,0.008956421166658401,0.17220792174339294,-0.3909071087837219,-0.2945672869682312,-0.8720216155052185,0.0016554296016693115,0.03028509020805359,-0.01887798309326172,-0.911736355043977,-0.07588142687492831,0.24131140112096516,0.32364732079904385,0.2990026845501899,-0.42142003196714783,-0.6177965674166457
1776284985513743360,1.8347434997558594,0.123703233897686,-0.008702732622623444,0.15165230631828308,-0.39139413833618164,-0.29454517364501953,-0.8718106150627136,0.01428842544555664,0.04398062825202942,-0.020828545093536377,-0.9119714713197786,-0.07600484959016492,0.24149111699556403,0.3228207339748674,0.29897955883731253,-0.4219754039074204,-0.6159411907895814
1776284985523699456,1.8446996212005615,0.22564803063869476,-0.007661064155399799,0.11436912417411804,-0.39186447858810425,-0.2955533564090729,-0.8712579607963562,0.019092261791229248,0.052862316370010376,-0.0314367413520813,-0.9121078787826191,-0.07662959222131467,0.24186552163719116,0.32200627673672416,0.300034684458803,-0.4226614846546102,-0.6139203145171713
1776284985533655296,1.8546555042266846,0.3018586337566376,-0.006763046607375145,0.08226871490478516,-0.39221662282943726,-0.29747363924980164,-0.8704456090927124,0.013554513454437256,0.052402228116989136,-0.029929757118225098,-0.91215461942199,-0.07770625000672586,0.2423611627212704,0.3212424753007856,0.30204539694804594,-0.4233468727834203,-0.6118488839856795
1776284985543612416,1.8646125793457031,0.3560941517353058,-0.0036798780784010887,0.058107178658246994,-0.39247044920921326,-0.30006879568099976,-0.8694398403167725,0.009261220693588257,0.048542916774749756,-0.015539407730102539,-0.912130564374817,-0.07911701290140552,0.24294151273950682,0.32052715435551565,0.30476477134252683,-0.4240226333496577,-0.6097637872830403
1776284985553568256,1.8745684623718262,0.37760448455810547,0.014600325375795364,0.049389056861400604,-0.3925844728946686,-0.30305883288383484,-0.868350625038147,0.007147490978240967,0.03891393542289734,-0.005138754844665527,-0.9120757428260382,-0.08074023459715594,0.24352763309863973,0.31983314671711,0.30790081066681424,-0.42460195066650464,-0.6076623642066274
1776284985563524608,1.8845245838165283,0.3524061441421509,0.030280113220214844,0.04537753760814667,-0.3925299346446991,-0.30606013536453247,-0.8673219680786133,0.0016302764415740967,0.02465757727622986,0.006848335266113281,-0.912027788425046,-0.08239264004521009,0.2440296342180546,0.3191649137874535,0.3110518177860088,-0.42499485076166876,-0.6056305521499624
1776284985573481216,1.8944814205169678,0.29524219036102295,0.033602938055992126,0.03656140714883804,-0.3923729956150055,-0.3087109625339508,-0.8664531111717224,-0.002051413059234619,0.009943842887878418,0.024015367031097412,-0.9119964202412145,-0.08387222727807224,0.24441540903039521,0.31857362716442056,0.3138374868662572,-0.42522117543791776,-0.6038440039408236
1776284985583437568,1.90443754196167,0.22472183406352997,0.03757443279027939,0.030429214239120483,-0.39217013120651245,-0.31083208322525024,-0.8657863736152649,-0.00043851137161254883,-0.002858102321624756,0.028902828693389893,-0.9119810664348691,-0.08507189841483741,0.2446826344953764,0.3180940170984843,0.3160683583999232,-0.425316134471137,-0.602407968396123
1776284985593393408,1.914393424987793,0.13405877351760864,0.042239222675561905,0.024785444140434265,-0.39191049337387085,-0.3122780919075012,-0.8653834462165833,-0.0017204582691192627,-0.01717439293861389,0.026241660118103027,-0.9119984788573959,-0.08592154071370084,0.24479737950394057,0.31772699882121225,0.3175901161334216,-0.425242159244558,-0.6013541388968228
1776284985603350528,1.9243505001068115,0.02827194705605507,0.035759326070547104,0.013418006710708141,-0.3916318714618683,-0.31290602684020996,-0.8652827739715576,-0.005111873149871826,-0.02776166796684265,0.024859189987182617,-0.9120414071073843,-0.08633037515112275,0.2447563728992115,0.31752448202470807,0.3182511759613331,-0.42501868059685205,-0.600820118621633
1776284985613306624,1.9343066215515137,-0.06417357176542282,0.026625750586390495,0.004670587833970785,-0.391390860080719,-0.31269824504852295,-0.8654668927192688,-0.006939798593521118,-0.027481168508529663,0.026142001152038574,-0.9121012041973833,-0.0862769435052578,0.24458707006791044,0.3174976342189701,0.3180324032078112,-0.4247075875726222,-0.6008273764439183
1776284985623263232,1.9442634582519531,-0.11552677303552628,0.016316253691911697,-2.6695546694099903e-05,-0.3912232220172882,-0.3118910491466522,-0.8658338785171509,-0.0035673975944519043,-0.02149820327758789,0.019810378551483154,-0.9121697318695918,-0.08588604598135387,0.24434941067943336,0.317589740690449,0.31718270020387085,-0.42438764731361983,-0.6012020136616208
1776284985633219584,1.9542195796966553,-0.12949371337890625,0.01452740840613842,-0.0013561457162722945,-0.3910875916481018,-0.3108185827732086,-0.866280734539032,-0.00028511881828308105,-0.008059591054916382,0.008675754070281982,-0.912240956570322,-0.08534535950199199,0.24408154168158136,0.3177370933943963,0.31605415324716235,-0.4240640260508787,-0.6017446799931911
1776284985643175424,1.9641754627227783,-0.10767310857772827,0.009580852463841438,-0.0023284656926989555,-0.3909757733345032,-0.309778094291687,-0.8667038083076477,-0.005462825298309326,0.005227923393249512,-0.001429736614227295,-0.9123040369372367,-0.08481527320842622,0.2438328632335303,0.3178887528683853,0.31495962428054985,-0.4237737559180018,-0.6022876552657553
1776284985653132544,1.9741325378417969,-0.05291398614645004,0.011960653588175774,0.0024575009010732174,-0.39089512825012207,-0.30907779932022095,-0.8669901490211487,-0.00857996940612793,0.016109049320220947,-0.011107385158538818,-0.9123507923592014,-0.08446247096827232,0.24366167351648138,0.31797983360049326,0.3142232023384213,-0.42357264310521253,-0.6026293944943248
1776284985663088384,1.98408842086792,0.0005763487424701452,0.01654677651822567,0.01007041335105896,-0.39079636335372925,-0.30883482098579407,-0.8671212792396545,-0.011883050203323364,0.020962506532669067,-0.02303069829940796,-0.9123891254381253,-0.08436241286057503,0.24356181145279962,0.3179729185820511,0.3139677179178104,-0.4234213450615479,-0.6026710363612352
1776284985673044480,1.994044542312622,0.04620828106999397,0.015179775655269623,0.020108133554458618,-0.39069950580596924,-0.3089815676212311,-0.8671126365661621,-0.01370421051979065,0.02396264672279358,-0.02183389663696289,-0.9124231693265791,-0.08447853112277882,0.2435304245627064,0.31786837631500253,0.31412202817296053,-0.4233322120169633,-0.6024242711847859
1776284985683001600,2.0040016174316406,0.08133116364479065,0.012856541201472282,0.0299980491399765,-0.39065590500831604,-0.3094448149204254,-0.8669670820236206,-0.01013144850730896,0.022808462381362915,-0.019080281257629395,-0.9124511937495505,-0.08476434040293744,0.24358051895175606,0.31767351060570104,0.31460912424510823,-0.423353288020472,-0.6019136452623942
1776284985692957440,2.0139575004577637,0.0876079723238945,0.01615912653505802,0.03894174098968506,-0.3906351625919342,-0.31005704402923584,-0.8667576909065247,-0.004308044910430908,0.01482999324798584,-0.017916440963745117,-0.9124879979320905,-0.08513934667248038,0.24366464720695435,0.3174029941029039,0.3152530298179758,-0.4234238945056068,-0.6012063519340928
1776284985702913536,2.023913621902466,0.06050918996334076,0.01537884771823883,0.0468478687107563,-0.39062485098838806,-0.3105405569076538,-0.8665891885757446,-0.003906369209289551,0.0023740530014038086,-0.008715987205505371,-0.9125431138918836,-0.08545532888587898,0.24372689250427138,0.3171115342710353,0.31576165645405846,-0.42348683369186674,-0.6004764623711876
1776284985712870400,2.0338704586029053,0.013241810724139214,0.01717781275510788,0.05557504668831825,-0.3906460702419281,-0.3106686472892761,-0.8665336966514587,-0.006845384836196899,-0.01335170865058899,0.0029472708702087402,-0.9126254698262911,-0.08558945097581779,0.2437367570468583,0.3168304101246084,0.31589641967295234,-0.42353116996780793,-0.599833579331568
1776284985722826496,2.0438265800476074,-0.04995398968458176,0.02380804531276226,0.066768579185009,-0.39065778255462646,-0.31028324365615845,-0.8666664958000183,-0.007520318031311035,-0.029331624507904053,0.00956505537033081,-0.9127534257584499,-0.08546942237262617,0.24364264465945082,0.3165665749960434,0.3154909751080373,-0.42348500577948767,-0.5993277071616907
1776284985732782336,2.0537824630737305,-0.14083383977413177,0.02795112505555153,0.08131849765777588,-0.3906669616699219,-0.3091740608215332,-0.8670586347579956,-0.009494781494140625,-0.0409846305847168,0.019402384757995605,-0.9129424931606839,-0.08498827597356051,0.24340843562511444,0.31633093843309495,0.31432441293770524,-0.4233243370459846,-0.5990220001150911
1776284985742739456,2.063739538192749,-0.22167110443115234,0.020411957055330276,0.09560662508010864,-0.3907293677330017,-0.3072429895401001,-0.8677167296409607,-0.007570803165435791,-0.0471881628036499,0.029887139797210693,-0.913192281241636,-0.08408693707477045,0.24304530850933964,0.31613014033373993,0.31229451878465475,-0.42310004919967253,-0.5989436064286653
1776284985752695296,2.073695421218872,-0.27802518010139465,0.008442112244665623,0.09939230233430862,-0.3909010887145996,-0.3046841323375702,-0.8685413002967834,-0.0012040436267852783,-0.04469636082649231,0.03428220748901367,-0.9134707993512159,-0.08284755674960044,0.24262243287074922,0.3159775597399535,0.309606780071064,-0.42290898312593644,-0.5990786617884601
1776284985762651392,2.083651542663574,-0.3146357238292694,0.017527379095554352,0.08565358817577362,-0.3910761773586273,-0.3017449378967285,-0.869488000869751,0.006676763296127319,-0.033734798431396484,0.025509119033813477,-0.9137544823594854,-0.0814005369619774,0.2421362010152638,0.31590636681146483,0.30652238201101545,-0.4226689100397211,-0.5994637024016938
1776284985772608512,2.0936086177825928,-0.3120870590209961,0.011641261167824268,0.07706223428249359,-0.3911876976490021,-0.2986835241317749,-0.8704943060874939,0.009138137102127075,-0.016196846961975098,0.021769940853118896,-0.9140275635318927,-0.07988468582828882,0.24160150087235294,0.31591257986350696,0.30331290310719317,-0.4223429716836941,-0.6000473498428398
1776284985782563328,2.1035633087158203,-0.274091899394989,0.00706642959266901,0.06653448939323425,-0.391319215297699,-0.2958461344242096,-0.8714036345481873,0.009559571743011475,-0.0024174153804779053,0.01665210723876953,-0.914268549266053,-0.07847126772408197,0.24112326740660445,0.31593492271253387,0.30034119543952875,-0.4220783299390939,-0.6006211863596475
1776284985792519424,2.1135194301605225,-0.2149636149406433,0.0108545096591115,0.04485422372817993,-0.3914097845554352,-0.2934959828853607,-0.8721573948860168,0.00940600037574768,0.012520641088485718,0.00437474250793457,-0.9144640473139365,-0.07730095197099904,0.24071950274246784,0.31596548002173974,0.29788183955467956,-0.4218417858071374,-0.601124226011696
1776284985802476288,2.123476505279541,-0.15002530813217163,0.018972598016262054,0.017390111461281776,-0.3913789689540863,-0.29178592562675476,-0.8727447986602783,0.009146302938461304,0.02788516879081726,-0.0013854503631591797,-0.9146006892830821,-0.07645366507924894,0.24037977125722135,0.3160348681157075,0.2960934884373361,-0.42156090923897,-0.6016024176507657
1776284985812432384,2.133432388305664,-0.07675401866436005,0.02069699391722679,-0.00494076032191515,-0.39122244715690613,-0.2907664477825165,-0.8731551170349121,0.01147693395614624,0.04294845461845398,-0.0021805763244628906,-0.9146772093440402,-0.07595591686946383,0.24011067229118266,0.3161378931367214,0.2950278074784771,-0.42123615528669606,-0.6020352089025911
1776284985822389248,2.1433894634246826,0.020476553589105606,0.02449897490441799,-0.018956976011395454,-0.3909860849380493,-0.2905566394329071,-0.87333083152771,0.014353394508361816,0.054762572050094604,-0.004705667495727539,-0.9146953369039901,-0.07587098705242544,0.239954543869039,0.3162244021673515,0.2948085243583738,-0.4209356702827655,-0.6022864245492235
1776284985832345344,2.1533453464508057,0.12416672706604004,0.03736869990825653,-0.017832856625318527,-0.39065635204315186,-0.2912728488445282,-0.8732398152351379,0.010269999504089355,0.0518471896648407,-0.01366204023361206,-0.9146735386759476,-0.0762785199766357,0.23992016480843553,0.31621550023733,0.2955570979044799,-0.4206599515918537,-0.6021633418043749
1776284985842301440,2.163301467895508,0.19374357163906097,0.05222773179411888,-0.0028869304805994034,-0.3902283310890198,-0.2927318215370178,-0.8729432225227356,-0.0023345351219177246,0.03594166040420532,-0.018963515758514404,-0.9146489135889312,-0.07710557873147976,0.23996480286099303,0.3160521183733336,0.2970825810415121,-0.4203779965756438,-0.6015722685931579
1776284985852258560,2.1732585430145264,0.19651193916797638,0.05508823320269585,0.012586035765707493,-0.3897658884525299,-0.29444441199302673,-0.8725737929344177,-0.013935893774032593,0.014033645391464233,-0.012695372104644775,-0.9146436864027184,-0.07809216646008547,0.2400306407469127,0.3157750907136554,0.29887410262119357,-0.42009400636235605,-0.6006889304552055
1776284985862214400,2.1832144260406494,0.16866916418075562,0.04702601581811905,0.01782527193427086,-0.38936495780944824,-0.29598790407180786,-0.8722305297851562,-0.01589319109916687,-0.005190074443817139,-0.00035858154296875,-0.9146564766094631,-0.07899442184717595,0.2400929277806471,0.3154661817211683,0.3004896141532701,-0.4198573330724523,-0.5997622571186294
1776284985872170240,2.1931703090667725,0.11921533197164536,0.033828720450401306,0.016064656898379326,-0.3890637755393982,-0.2971797585487366,-0.8719596266746521,-0.009862005710601807,-0.021652638912200928,0.0041770339012146,-0.9146755235422658,-0.07969808840082962,0.24014245412325358,0.3151962045198422,0.3017376096874302,-0.41968494595497247,-0.5989774492304258
1776284985882127360,2.203127384185791,0.04833279177546501,0.020241592079401016,0.014510702341794968,-0.38886862993240356,-0.2978546619415283,-0.8718163967132568,-0.0052811503410339355,-0.02895808219909668,0.009328603744506836,-0.9146981540654726,-0.0801077370874439,0.24015528127125144,0.3150167583815019,0.30244453506951435,-0.4195593997913119,-0.5984775155194799
1776284985892083456,2.213083505630493,-0.016348998993635178,0.007136443629860878,0.01566465012729168,-0.3887953460216522,-0.2979232966899872,-0.871825635433197,0.0021223723888397217,-0.027485668659210205,0.013976514339447021,-0.9147313943874951,-0.0801770255242544,0.24012253896782185,0.31492753212044616,0.3025164049333587,-0.41948534789386704,-0.598276864595821
1776284985902039296,2.223039388656616,-0.04583834111690521,-0.0016355293337255716,0.024352148175239563,-0.3888321816921234,-0.2975538372993469,-0.8719353675842285,0.005806088447570801,-0.016044795513153076,0.013369083404541016,-0.9147799101411958,-0.08000448183181066,0.2400658394964022,0.3148737232899554,0.3021294064804664,-0.41947378926943646,-0.5982250828314115
1776284985911996416,2.2329964637756348,-0.04673422873020172,0.0008784946985542774,0.035311851650476456,-0.3889380991458893,-0.2970203459262848,-0.8720700144767761,0.009894520044326782,-0.00644645094871521,0.004317939281463623,-0.9148451114688139,-0.07974768714802676,0.24001104445291743,0.3147913220919395,0.30157066119631265,-0.4195176488328894,-0.5981348101689941
1776284985921952256,2.242952346801758,-0.030491769313812256,0.004488755948841572,0.03719444200396538,-0.3890240788459778,-0.2965373992919922,-0.8721959590911865,0.008927673101425171,0.0045909881591796875,-0.0012323856353759766,-0.914920082465023,-0.07952831983944986,0.2399526186363103,0.314673116173017,0.30106491427961984,-0.4195461558243179,-0.5979587018283314
1776284985931908352,2.25290846824646,0.009607713669538498,-0.0032181660644710064,0.03479653224349022,-0.3891229033470154,-0.2962992489337921,-0.8722328543663025,0.009301096200942993,0.012699395418167114,-0.00534588098526001,-0.9149809089530545,-0.07943407019198656,0.23994543359473067,0.31452552159991104,0.30081555820420014,-0.4196249147627318,-0.5976710959975697
1776284985941865216,2.2628653049468994,0.056292928755283356,-0.0021297321654856205,0.030013496056199074,-0.3892565965652466,-0.2964640259742737,-0.8721171617507935,0.01196780800819397,0.01605325937271118,-0.011687159538269043,-0.9150136016804672,-0.07954117351590867,0.240030464840993,0.3143382757215461,0.3009881062516173,-0.41980212306277376,-0.5972174065842986
1776284985951821312,2.2728214263916016,0.09058991074562073,-0.000408797524869442,0.019593345001339912,-0.3893432915210724,-0.29701101779937744,-0.8718923330307007,0.008941680192947388,0.01647818088531494,-0.017695069313049316,-0.9150221718569186,-0.07984718912105777,0.24016295534139107,0.314134872260286,0.3015608839039854,-0.41998096360649256,-0.5966610632037904
1776284985961777152,2.2827773094177246,0.1065693125128746,-0.0019323385786265135,0.016883578151464462,-0.3894020915031433,-0.2978058457374573,-0.8715949058532715,0.0020882487297058105,0.011840879917144775,-0.016161441802978516,-0.9150097424983351,-0.08027842335652989,0.24032878123719614,0.3139340127942588,0.3023933747822984,-0.42016426919902333,-0.5960660006051056
1776284985971734272,2.292734384536743,0.10416287928819656,-0.007855474948883057,0.020944099873304367,-0.3895098865032196,-0.29865360260009766,-0.8712565898895264,-0.0012066662311553955,0.005288124084472656,-0.011388063430786133,-0.9149897742066002,-0.08073011334225781,0.24052929278947108,0.313722990933812,0.3032815503275396,-0.4204119932446679,-0.5954336793892945
1776284985981690368,2.3026905059814453,0.08521666377782822,-0.0039000415708869696,0.03215494379401207,-0.3896339237689972,-0.2993773818016052,-0.8709527254104614,-0.0005486011505126953,0.0006255507469177246,-0.009555697441101074,-0.9149852790016664,-0.08112336592381973,0.24071277161844631,0.31349396539582614,0.3040400313357526,-0.4206606412323842,-0.5947835368822239
1776284985991646208,2.3126463890075684,0.0495513491332531,-0.0034417116548866034,0.03801123425364494,-0.3897719383239746,-0.29983147978782654,-0.870734691619873,7.775425910949707e-05,-0.005481630563735962,-0.005608022212982178,-0.9150075091696015,-0.08138515373877003,0.24085077905089491,0.3132549847843359,0.30451598924106094,-0.4208860218878713,-0.5941610363386512
1776284986001603328,2.322603464126587,-0.0010967021808028221,-0.012337042950093746,0.03964987397193909,-0.3899555206298828,-0.29989001154899597,-0.8706323504447937,-0.0005321502685546875,-0.01196908950805664,0.0015985369682312012,-0.9150491917783041,-0.08143663273550791,0.24093962974366506,0.31305139427842765,0.30457736991908857,-0.42110552234211346,-0.5936861652409503
1776284986011559168,2.33255934715271,-0.0398278534412384,-0.028047828003764153,0.03456270694732666,-0.39025387167930603,-0.29955142736434937,-0.8706152439117432,0.0026043355464935303,-0.012841761112213135,0.009516000747680664,-0.9150914883390153,-0.08125720099053334,0.2410179397311029,0.3129141945579343,0.3042224438637397,-0.42139823233293294,-0.5934201363677354
1776284986021515264,2.342515468597412,-0.0630304291844368,-0.027554184198379517,0.028799094259738922,-0.39060187339782715,-0.2989737093448639,-0.870657742023468,0.0045697689056396484,-0.009620040655136108,0.008765041828155518,-0.9151280185368601,-0.08093566808534144,0.24108204606692052,0.3128410091742819,0.30361697714235897,-0.42171280703803393,-0.5933344698550159
1776284986031472128,2.3524723052978516,-0.08536849170923233,-0.024676106870174408,0.023526301607489586,-0.39090695977211,-0.2982344329357147,-0.8707743287086487,-0.001671135425567627,-0.007765293121337891,0.007813572883605957,-0.9151660974006866,-0.08052784783882065,0.24109768549545135,0.31282280052359823,0.30284235932601367,-0.42195442483332724,-0.5934043350206344
1776284986041428224,2.3624284267425537,-0.10473553091287613,-0.02352069318294525,0.01849798671901226,-0.39117562770843506,-0.2973208427429199,-0.8709660768508911,-0.006300598382949829,-0.0016903877258300781,0.011911511421203613,-0.9152095069517129,-0.08002923677041913,0.2410648850943695,0.3128489976691367,0.30188537930358345,-0.42212887803537685,-0.5936083053626084
1776284986051385344,2.3723855018615723,-0.10419198125600815,-0.025179309770464897,0.013370868749916553,-0.39143872261047363,-0.2963391840457916,-0.871182382106781,-0.002512693405151367,0.005918651819229126,0.01635456085205078,-0.9152463992733003,-0.07948808260527787,0.24101958408840615,0.31291406422591,0.3008573943108031,-0.42228739090131123,-0.5939109850287262
1776284986061341184,2.3823413848876953,-0.08342976123094559,-0.01496260054409504,0.005497499369084835,-0.39164209365844727,-0.2954850196838379,-0.8713811635971069,-0.00018832087516784668,0.011930912733078003,0.011975646018981934,-0.9152734046624709,-0.07901535280201759,0.2409688686255804,0.31299417195578133,0.2999631527775356,-0.4223963015252462,-0.5942284475867101
1776284986071297280,2.3922975063323975,-0.07012061774730682,0.0018065264448523521,-0.0016232606722041965,-0.39170029759407043,-0.2948278784751892,-0.8715775012969971,-0.005363911390304565,0.011182248592376709,0.00487828254699707,-0.9152975820575081,-0.07866184186505293,0.24088078221555975,0.3130799404216435,0.2992753758117486,-0.42236761124183436,-0.5945350707070818
1776284986081254144,2.402254343032837,-0.08110009133815765,0.01154453493654728,-0.003330879844725132,-0.39162901043891907,-0.29418879747390747,-0.8718254566192627,-0.011218249797821045,0.008498519659042358,0.00941401720046997,-0.9153306889671179,-0.07833487242759482,0.24072994882834037,0.3131811452649532,0.2986066348453041,-0.4221932228266318,-0.594884763939524
1776284986091210240,2.412210464477539,-0.0863044410943985,0.0042639849707484245,-0.011164301075041294,-0.3915371894836426,-0.2934711277484894,-0.8721085786819458,-0.007525891065597534,0.00877264142036438,0.0208817720413208,-0.915362756273321,-0.07796481148270319,0.2405560350558976,0.31331361000616326,0.29785583407665583,-0.42198427435142,-0.5953196018220717
1776284986101166336,2.422166347503662,-0.06038612499833107,-0.0016314012464135885,-0.020948488265275955,-0.39149606227874756,-0.2928757071495056,-0.8723271489143372,0.0030530691146850586,0.012129247188568115,0.018826782703399658,-0.9153686384502937,-0.07763954742269084,0.24043401626469252,0.3134708080991797,0.2972330436110599,-0.4218513773161802,-0.5957801233672794
1776284986111123200,2.4321234226226807,-0.029537398368120193,0.009748285636305809,-0.0262652225792408,-0.3913894593715668,-0.2925949990749359,-0.8724691867828369,-0.00037994980812072754,0.012031644582748413,0.004930734634399414,-0.9153521645282261,-0.07747798691197766,0.24033843956252932,0.3136321091314764,0.2969394681814235,-0.4216888589225457,-0.5961961614096525
1776284986121079296,2.4420793056488037,-0.0310651995241642,0.016011614352464676,-0.02295970730483532,-0.3911992013454437,-0.292439728975296,-0.8726065158843994,-0.012853503227233887,0.006825745105743408,-0.0021187663078308105,-0.9153401672942549,-0.07739628856160057,0.2402218694646383,0.31377633470677213,0.29677711636384563,-0.4214485566803023,-0.5965591164644027
1776284986131035392,2.452035427093506,-0.04479486122727394,0.013226746581494808,-0.011350722052156925,-0.39102163910865784,-0.2921695113182068,-0.8727766275405884,-0.015594571828842163,0.0041446685791015625,0.005161941051483154,-0.9153443914346007,-0.07726187453831027,0.24008808727476771,0.3138995365928711,0.29649456276860525,-0.4212063765341729,-0.5968966825237483
1776284986140992512,2.4619925022125244,-0.03800779581069946,0.012970684096217155,-0.003939944785088301,-0.3908950686454773,-0.2918284833431244,-0.8729473948478699,-0.007908642292022705,0.00432237982749939,0.010230720043182373,-0.9153632641244128,-0.07709540475703046,0.2399637340353696,0.31398055072417314,0.29613799054976353,-0.42101260137905216,-0.5971504657112132
1776284986150948352,2.4719483852386475,-0.02739776112139225,0.015232772566378117,-0.0009212513687089086,-0.3907656669616699,-0.2915630042552948,-0.8730940222740173,-0.0035671889781951904,0.0031414031982421875,0.006089687347412109,-0.9153885196369765,-0.07697627212299227,0.23984919807278587,0.3140235971607557,0.2958604339886086,-0.4208265069142804,-0.5973071809555381
1776284986160904448,2.4819045066833496,-0.028743136674165726,0.015549130737781525,-0.002169208601117134,-0.39061781764030457,-0.2913248538970947,-0.8732396960258484,-0.005103617906570435,0.00026345252990722656,0.005609691143035889,-0.9154179291956526,-0.07687693512811807,0.23972920490878893,0.31405393816704974,0.29561146975572516,-0.4206232292089293,-0.5974327306459098
1776284986170861312,2.491861343383789,-0.021329164505004883,0.012014582753181458,-0.002812894992530346,-0.39048832654953003,-0.29110753536224365,-0.8733701109886169,-0.005935013294219971,0.0005343854427337646,0.009127497673034668,-0.9154394527631483,-0.0767818542781129,0.23962367047710825,0.31409510721812434,0.29538429431090135,-0.4204440084491313,-0.5975761871624965
1776284986180817408,2.501817464828491,-0.004754500463604927,0.012664553709328175,-0.0002900821855291724,-0.39038509130477905,-0.2909891903400421,-0.8734556436538696,-0.0035205483436584473,0.0013315975666046143,0.005825638771057129,-0.9154537472066074,-0.07673456658265285,0.23954953332187745,0.3141214440930951,0.29526060086526784,-0.4203090065801726,-0.5976659491496684
1776284986190773248,2.5117733478546143,-0.0025757683906704187,0.017926162108778954,-6.983883213251829e-05,-0.39025169610977173,-0.29097285866737366,-0.8735206723213196,-0.005729109048843384,-0.002621471881866455,-0.0010825395584106445,-0.915471522773269,-0.07674909138127481,0.239476990779605,0.31412129295673535,0.295243537886322,-0.4201539630049903,-0.5976814782966362
1776284986200730368,2.521730422973633,-0.01991523802280426,0.015984663739800453,0.004247145261615515,-0.3901083767414093,-0.29087069630622864,-0.8736187219619751,-0.006208151578903198,-0.004981964826583862,-0.00045049190521240234,-0.9154986255381592,-0.0767236061922595,0.23938279851815739,0.31412026765796414,0.295136749393228,-0.419975403221708,-0.5977122431457274
1776284986210686208,2.531686305999756,-0.03442786633968353,0.011186446063220501,0.007764914538711309,-0.3900073766708374,-0.2906084656715393,-0.8737511038780212,0.0005115270614624023,-0.004099816083908081,0.00818103551864624,-0.9155341742842148,-0.07661205413277906,0.23928024519982688,0.3141223520386417,0.29486267473871874,-0.41982260627458956,-0.5977759687785179
1776284986220642304,2.541642427444458,-0.032733991742134094,0.01017239410430193,0.0034513927530497313,-0.3899531960487366,-0.29028087854385376,-0.8738841414451599,0.009261667728424072,0.0015082955360412598,0.016187608242034912,-0.9155685791951472,-0.07645983427962497,0.2391899114377055,0.3141278939000115,0.29452035352020123,-0.4197142504053327,-0.5978549481849303
1776284986230599424,2.5515995025634766,-0.01296321488916874,0.008906859904527664,-0.012487625703215599,-0.38987958431243896,-0.29008302092552185,-0.8739827275276184,0.014101386070251465,0.005476087331771851,0.017339050769805908,-0.9155816483434362,-0.07636510734454503,0.23911716540054984,0.3141682211089461,0.2943135770151593,-0.4196020539939963,-0.5979873287531409
1776284986240555264,2.5615553855895996,0.010726560838520527,0.015193438157439232,-0.024143483489751816,-0.38974568247795105,-0.29014983773231506,-0.8740202188491821,0.010152816772460938,0.007877498865127563,0.011074662208557129,-0.9155641700384811,-0.07639915929719157,0.23906703200315596,0.3142490719319677,0.29438342186993005,-0.4194582816444889,-0.5981641536208235
1776284986250511360,2.5715115070343018,0.02503279596567154,0.018636107444763184,-0.03410210832953453,-0.389533668756485,-0.29041722416877747,-0.8740259408950806,0.004813820123672485,0.009518176317214966,0.005022644996643066,-0.9155318115881522,-0.07653957536154272,0.23901613760071555,0.3143478027219468,0.29466282884248496,-0.4192534811894818,-0.5983497825712243
1776284986260468224,2.581468343734741,0.042860690504312515,0.01401584129780531,-0.04456327110528946,-0.3892769515514374,-0.290857195854187,-0.8739940524101257,0.00550311803817749,0.013955950736999512,0.007279574871063232,-0.9154784770030286,-0.07676362179669102,0.2389776757280976,0.3144776925181839,0.29512263273006295,-0.41902198590894196,-0.5985754311272602
1776284986270424320,2.5914244651794434,0.08267068862915039,0.00723756430670619,-0.057961102575063705,-0.38905200362205505,-0.29159048199653625,-0.8738498687744141,0.012053102254867554,0.019434720277786255,0.0052585601806640625,-0.9153869009896516,-0.0771196850001352,0.23901385381972864,0.3146298304089787,0.29588914978236164,-0.41886848540249605,-0.598791755964434
1776284986280380160,2.6013803482055664,0.13119705021381378,0.017208252102136612,-0.0682840421795845,-0.38877856731414795,-0.29277780652046204,-0.8735744953155518,0.01199328899383545,0.020591527223587036,-0.005377531051635742,-0.9152569219607533,-0.07770379592979831,0.23911270726992884,0.3147886451894419,0.2971306556247951,-0.4187244008724803,-0.5989422216396136
1776284986290337280,2.611337423324585,0.15681639313697815,0.03391346335411072,-0.06289220601320267,-0.38837021589279175,-0.29432207345962524,-0.873237133026123,0.001056373119354248,0.015421926975250244,-0.013771533966064453,-0.915124706051223,-0.07849596825813886,0.23920663899881509,0.3149053209410422,0.2987461087617748,-0.418477542265392,-0.5989473580252723
1776284986300293120,2.621293306350708,0.13858583569526672,0.03178354725241661,-0.04594651982188225,-0.3879109025001526,-0.29583507776260376,-0.8729299902915955,-0.007520586252212524,0.0034156441688537598,-0.010065615177154541,-0.9150207388116506,-0.07929678923342913,0.23926350681497166,0.31496374535551236,0.3003296044971354,-0.41816887458009555,-0.5988367246011141
1776284986310250240,2.6312503814697266,0.1065533310174942,0.025427380576729774,-0.030694859102368355,-0.38756129145622253,-0.2970498204231262,-0.8726726770401001,-0.003719806671142578,-0.006920486688613892,-0.001533806324005127,-0.9149449999099791,-0.07994478184189228,0.23931669192148544,0.3149794387525639,0.3016015345830805,-0.41794369668762577,-0.5986782070787231
1776284986320206336,2.6412065029144287,0.06166095286607742,0.027934079989790916,-0.018469618633389473,-0.38725799322128296,-0.29788362979888916,-0.8725231289863586,0.001347959041595459,-0.01852262020111084,0.0015667080879211426,-0.9149052203623461,-0.080403925420116,0.23931913496067295,0.31497624672567137,0.30247486494125675,-0.41771692390029963,-0.5985455055485639
1776284986330162176,2.6511623859405518,0.0006005303002893925,0.019697722047567368,-0.022316554561257362,-0.3869841992855072,-0.2982356548309326,-0.8725243210792542,-0.0009857416152954102,-0.026242494583129883,0.00944143533706665,-0.9148887986349928,-0.08060925177389501,0.23924878093020419,0.31502493920365393,0.3028436684326249,-0.4174542278656184,-0.5986136706474589
1776284986340119296,2.6611194610595703,-0.059826381504535675,0.015379833057522774,-0.016239752992987633,-0.38677021861076355,-0.29805025458335876,-0.8726825714111328,-0.0009861290454864502,-0.029891639947891235,0.017015457153320312,-0.9148915021140919,-0.0805239743154713,0.23911212384749603,0.3151426653608877,0.3026494300397929,-0.4171820965711578,-0.5989273028863915
1776284986350075136,2.6710753440856934,-0.10550332069396973,0.011434892192482948,-0.010210889391601086,-0.38660985231399536,-0.29737019538879395,-0.8729856014251709,-2.0563602447509766e-06,-0.029991865158081055,0.0179440975189209,-0.9149224285702653,-0.08017954089033927,0.23891096985842963,0.31529332801996995,0.3019370547025194,-0.4168999488697567,-0.5993998561538069
1776284986360031488,2.6810314655303955,-0.13446342945098877,0.006786397658288479,-0.009809550829231739,-0.38650402426719666,-0.29634812474250793,-0.8733798861503601,-0.0034648776054382324,-0.025093495845794678,0.012936770915985107,-0.9149665632276558,-0.07965035266520999,0.23867527382973533,0.31547742126693357,0.30086675548421665,-0.41663144784879796,-0.6000034677212027
1776284986369988352,2.690988540649414,-0.13713671267032623,0.0034926002845168114,-0.010189584456384182,-0.386433869600296,-0.2951935827732086,-0.8738018274307251,-0.0021159350872039795,-0.014681905508041382,0.007468819618225098,-0.9150110733325484,-0.07904514980096827,0.23843439467381708,0.31568265142301005,0.2996581195458215,-0.41638558583687785,-0.6006741940917749
1776284986379944448,2.700944423675537,-0.11100621521472931,0.005687391385436058,-0.01096216682344675,-0.3863638639450073,-0.2941426932811737,-0.8741870522499084,0.0024222135543823242,-0.002457648515701294,0.00043827295303344727,-0.9150484763780891,-0.07849297769173937,0.23821276860097157,0.31587921817288245,0.2985583984475949,-0.41615557682384974,-0.6013063310801413
1776284986389900288,2.71090030670166,-0.07336456328630447,0.005125464405864477,-0.013343299739062786,-0.3862798810005188,-0.29338401556015015,-0.8744791150093079,0.003970921039581299,0.008212506771087646,-0.005159556865692139,-0.9150724898559925,-0.07809493902695096,0.238037042728651,0.3160410787449854,0.2977647226348884,-0.41595174046958955,-0.6018094625317244
1776284986399857408,2.7208573818206787,-0.03360596299171448,0.008817404508590698,-0.01928747445344925,-0.38617420196533203,-0.29298415780067444,-0.8746598362922668,0.0043229758739471436,0.014511257410049438,-0.004597365856170654,-0.91507541826448,-0.07788277669071263,0.23791670876874213,0.3161756538147119,0.29734648633400784,-0.41577424368319793,-0.6021882057185781
1776284986409813504,2.730813503265381,-8.647330105304718e-07,0.013492584228515625,-0.026708906516432762,-0.38600966334342957,-0.2929318845272064,-0.8747499585151672,0.004402607679367065,0.01833471655845642,-0.005727946758270264,-0.9150574456667416,-0.07785307148456372,0.23783170314732938,0.31629892635447693,0.29729180664781474,-0.41557874791599564,-0.6024833489289219
1776284986419769344,2.740769386291504,0.0256552305072546,0.017623279243707657,-0.031182484701275826,-0.38579198718070984,-0.29316723346710205,-0.8747671246528625,0.004139155149459839,0.01393139362335205,-0.002430140972137451,-0.915023970775501,-0.0779760825320739,0.2377733648207096,0.316409020275604,0.2975379677709374,-0.41536320861041315,-0.6027014475647587
1776284986429726464,2.7507264614105225,0.027383089065551758,0.018106643110513687,-0.03495485335588455,-0.3855343163013458,-0.2935355305671692,-0.8747572302818298,0.002615004777908325,0.0072959065437316895,0.001389920711517334,-0.9149825895886569,-0.0781702307288642,0.23772001086174946,0.3165209626562302,0.29792320594170246,-0.4151207538021886,-0.6029030216235858
1776284986439682304,2.7606823444366455,0.010005271062254906,0.014537288807332516,-0.040332041680812836,-0.3852821886539459,-0.29385247826576233,-0.8747618794441223,-0.00017008185386657715,-0.0002911984920501709,0.0074523091316223145,-0.9149332736637832,-0.0783295033371965,0.2376626603154656,0.31666718916381564,0.2982547652848458,-0.41487741424253016,-0.6031886121047717
1776284986449638400,2.7706384658813477,-0.012810297310352325,0.02164233662188053,-0.06607867777347565,-0.38497185707092285,-0.29402926564216614,-0.8748391270637512,-2.2649765014648438e-05,-0.007942169904708862,0.007560074329376221,-0.9148779319538337,-0.07841094246356009,0.237554550990754,0.31688800375333653,0.2984397215989887,-0.41454771469688567,-0.6036690052560814
1776284986459595520,2.780595541000366,-0.020679885521531105,0.010832672007381916,-0.1365555226802826,-0.384546160697937,-0.294259637594223,-0.8749488592147827,-0.0020047426223754883,-0.008123785257339478,0.008264899253845215,-0.9147440107499308,-0.0784726893256488,0.2374186095725842,0.3173609666424424,0.2986807728129467,-0.4140937700993324,-0.6047022081494919
1776284986469551360,2.7905514240264893,-0.008116688579320908,0.016529971733689308,-0.15130198001861572,-0.3839873969554901,-0.2946993112564087,-0.8750462532043457,-0.008636474609375,0.001150757074356079,0.0052190423011779785,-0.9145283614565946,-0.07860100999476592,0.2372735562338353,0.31805821007425206,0.2991408401587827,-0.4135174467272561,-0.6062006024536979
1776284986479507200,2.8005073070526123,0.024536382406949997,0.004881412256509066,-0.07621759921312332,-0.3835217356681824,-0.2952187657356262,-0.8750753998756409,-0.003166496753692627,0.00995570421218872,0.004149496555328369,-0.9143499307490601,-0.07879451669395814,0.2371786706286428,0.3185936750995308,0.2996844865303642,-0.41305888835905735,-0.6073220237880546
1776284986489464320,2.810464382171631,0.11514244973659515,0.001948739169165492,0.032546959817409515,-0.3834230601787567,-0.29586726427078247,-0.8748995661735535,0.0012361705303192139,0.02052241563796997,0.011587858200073242,-0.9142953935184599,-0.0791225515883139,0.23725476829032843,0.31861215230533635,0.30036331331911664,-0.4130381691011957,-0.6072530373182328
1776284986499420416,2.820420503616333,0.3193662464618683,0.14261005818843842,0.1750609576702118,-0.3832830786705017,-0.29726773500442505,-0.8744860887527466,-0.014299899339675903,0.055141299962997437,0.012639224529266357,-0.9144523588663903,-0.08003044940997608,0.23738591412222051,0.31783619645661587,0.3018297506637084,-0.4130776994949943,-0.6053122860376633
1776284986509377280,2.8303773403167725,0.4965580701828003,0.18583741784095764,0.11835294961929321,-0.38211190700531006,-0.3003326654434204,-0.873951256275177,-0.01609671115875244,0.09720766544342041,-0.0375935435295105,-0.9147468994378377,-0.08205383887465988,0.23725838422377715,0.3165655573747328,0.3050413900052368,-0.41217822254072595,-0.6020889504090493
1776284986519333376,2.8403334617614746,0.4665248692035675,0.08958423882722855,0.09683087468147278,-0.3812742829322815,-0.30422937870025635,-0.8729687333106995,-0.023297280073165894,0.04353296756744385,-0.03772157430648804,-0.9148589119554502,-0.08438401980549973,0.23747624761730274,0.3154640581175959,0.3091293656913831,-0.4117857394523909,-0.5990515333037708
1776284986529289216,2.8502893447875977,0.3483295142650604,0.08129940927028656,0.06899498403072357,-0.38079938292503357,-0.3074614107608795,-0.8720431923866272,-0.0024708807468414307,-0.004901260137557983,0.016681253910064697,-0.9149224746070713,-0.08628266669270841,0.23776818059579968,0.3145448452544253,0.31252406397244376,-0.4117176855739692,-0.5964978187014438
1776284986539246336,2.860246419906616,0.19748131930828094,0.07255550473928452,0.009843246079981327,-0.38021257519721985,-0.3096838593482971,-0.8715126514434814,-0.01720258593559265,-0.04711240530014038,0.006736040115356445,-0.9149634710047665,-0.08760906192297313,0.2378409907253,0.3140032266426086,0.31486052912125956,-0.411375427702745,-0.5949682776725972
1776284986549202432,2.8702025413513184,-0.008269446901977062,-0.09857816249132156,-0.09232253581285477,-0.3801153004169464,-0.31071794033050537,-0.8711869716644287,-0.02517339587211609,-0.07024824619293213,0.01696944236755371,-0.9148658332479924,-0.08812486299111635,0.23799270557959354,0.3140287303446774,0.3159482734409339,-0.41141863864232603,-0.5948442244162223
1776284986559158272,2.8801584243774414,-0.19573302567005157,-0.1430516541004181,-0.3030789792537689,-0.3806372880935669,-0.3104334771633148,-0.8710604906082153,0.029563069343566895,-0.06310167908668518,0.028607487678527832,-0.9144585715197243,-0.0876160867494556,0.2383132168348818,0.3151124158705174,0.31564899711427147,-0.4119751452341519,-0.5972087040417474
1776284986569115392,2.89011549949646,-0.123017817735672,-0.12460659444332123,-0.4342130124568939,-0.3805922269821167,-0.3103758692741394,-0.871100664138794,0.0363386869430542,-0.026934921741485596,0.015067338943481445,-0.9137814652627724,-0.08707659322683235,0.23846871913526688,0.31710223126611436,0.3155884143008134,-0.4119147662587908,-0.6015777521897101
1776284986579071232,2.900071382522583,0.03254232555627823,-0.09168797731399536,-0.39148473739624023,-0.3802681267261505,-0.31157878041267395,-0.8708127737045288,0.015338927507400513,0.03450968861579895,-0.04523336887359619,-0.9130020184130724,-0.08719371637199733,0.2387276325214297,0.3191140763622809,0.3168540628841159,-0.4117235402624781,-0.6057975929619226
1776284986589027328,2.910027503967285,0.165378138422966,-0.042429614812135696,-0.298662394285202,-0.37976697087287903,-0.3137533664703369,-0.8702504634857178,0.008245974779129028,0.07173371315002441,-0.05989480018615723,-0.9123310542761748,-0.08795494191604612,0.2390369975495541,0.3205890989664202,0.31914343249540844,-0.41147679915837315,-0.6086868487179663
1776284986598984192,2.9199843406677246,0.2661190629005432,-0.019243311136960983,-0.2234446108341217,-0.3791953921318054,-0.3166288733482361,-0.8694579005241394,-0.01480180025100708,0.07415145635604858,-0.043521225452423096,-0.9117873837911528,-0.08921335771326516,0.23939929880852803,0.32151649879617733,0.3221733920885797,-0.41125871675811804,-0.6102585291532358
1776284986608940288,2.9299404621124268,0.2977321147918701,-0.0033354514744132757,-0.10954386740922928,-0.3787555694580078,-0.3197663128376007,-0.8685008883476257,-0.010648727416992188,0.05719307065010071,-0.031004786491394043,-0.9113647124209369,-0.09070142120917524,0.23983915878180223,0.32197028405333916,0.3254828412433807,-0.4112370215514397,-0.6107306868265361
1776284986618896128,2.93989634513855,0.22096145153045654,-0.01647801883518696,0.061188191175460815,-0.3787590265274048,-0.32216116786003113,-0.8676138520240784,0.020223259925842285,0.011309117078781128,-0.006730020046234131,-0.9112007905386114,-0.09192986522109171,0.2402955843011343,0.32174549242592954,0.32801148958934323,-0.4116148977416011,-0.6097987900151807
1776284986628853248,2.9498534202575684,0.022628920152783394,-0.02388932928442955,0.10558362305164337,-0.37925979495048523,-0.3229033052921295,-0.8671190738677979,0.04449722170829773,-0.04068312048912048,0.02805352210998535,-0.911270528951697,-0.09236046453249665,0.24064497144892455,0.3211630858813111,0.32879551732682244,-0.4123089917518908,-0.6083260018688968
1776284986638809344,2.9598095417022705,-0.2615804374217987,-0.045385297387838364,-0.05397621542215347,-0.379581481218338,-0.32178136706352234,-0.8673953413963318,0.008533507585525513,-0.10078027844429016,0.06943696737289429,-0.9113414880583239,-0.0917534676660031,0.24059017500927363,0.3211766291026044,0.32761031945040076,-0.4125033497340069,-0.6085244044046013
1776284986648765440,2.9697654247283936,-0.5013346672058105,-0.0458337739109993,-0.1317402571439743,-0.3797483742237091,-0.3188127279281616,-0.8684178590774536,-0.029873818159103394,-0.1351514756679535,0.09928339719772339,-0.9112814013505951,-0.09002026409346575,0.24018205064465012,0.3221413842257234,0.3244765995729745,-0.4122321515465809,-0.6111673006921348
1776284986658722304,2.979722499847412,-0.583289623260498,0.00934644229710102,-0.07795265316963196,-0.37951964139938354,-0.31442514061927795,-0.8701159358024597,0.005252063274383545,-0.10313162207603455,0.08866751194000244,-0.9113448193001079,-0.08761989391773721,0.23930064782941138,0.32327800178786287,0.3198510234337836,-0.4112947150039615,-0.6144893036063481
1776284986668678400,2.989678382873535,-0.5730854272842407,0.03358280658721924,-0.15542401373386383,-0.3791956305503845,-0.30971649289131165,-0.871944010257721,0.012969434261322021,-0.06723663210868835,0.04844248294830322,-0.9114546068304028,-0.08509274233227944,0.23830066796277358,0.3243804631820457,0.3148948635019973,-0.4102136969152419,-0.6177994496898974
1776284986678634496,2.9996345043182373,-0.4548671841621399,0.145021453499794,-0.6350556015968323,-0.37714508175849915,-0.30699360370635986,-0.8737943172454834,-0.03650540113449097,-0.031202197074890137,0.025268375873565674,-0.9109833277558516,-0.08341090149421597,0.23695032315834327,0.3271185872545026,0.3120324665509733,-0.40746249575396026,-0.6245165712784775
1776284986688591360,3.0095913410186768,-0.1880168467760086,0.2694363594055176,-0.3305390775203705,-0.37372085452079773,-0.30595847964286804,-0.8756267428398132,-0.08842208981513977,0.04349204897880554,-0.026823818683624268,-0.9106026052752826,-0.0828733094716325,0.23519917077422003,0.3295699951144162,0.3109450281821818,-0.4033975162229914,-0.6304405765020461
1776284986698547456,3.019547462463379,-0.035078421235084534,0.20109084248542786,-0.25157448649406433,-0.3707854449748993,-0.3061572313308716,-0.8768043518066406,0.05396720767021179,0.03169739246368408,-0.060955047607421875,-0.9104547063342194,-0.08315242351298824,0.23384500924804086,0.330869132977519,0.31115378525785714,-0.40007594567031496,-0.6335647995982898
1776284986708503296,3.029503345489502,0.007662913762032986,0.2410598248243332,-0.18627247214317322,-0.36826229095458984,-0.30679404735565186,-0.8776447176933289,-0.0010004043579101562,0.06715476512908936,-0.03156548738479614,-0.910360390440877,-0.08367804835985455,0.23275657603293842,0.3317622462919326,0.31182280865816875,-0.3972904176386733,-0.6356802719070792
1776284986718460416,3.0394604206085205,0.07392651587724686,0.38746529817581177,0.19762033224105835,-0.3656301498413086,-0.30723878741264343,-0.8785891532897949,-0.012482643127441406,0.03418275713920593,-0.027279376983642578,-0.9106486472171941,-0.08437883860628695,0.23148568017746804,0.3316832474921342,0.3122901221330566,-0.39435590548088334,-0.6357074020399999
1776284986728416512,3.0494165420532227,0.18104684352874756,0.26035767793655396,-0.5021303296089172,-0.36243554949760437,-0.3093167245388031,-0.8791835308074951,0.014123201370239258,-0.0471285879611969,-0.03434491157531738,-0.9105058443343909,-0.08573771698615261,0.23034168471247587,0.33252194685288433,0.31447442712615753,-0.39101428715971537,-0.6375375053406177
1776284986738373376,3.059373378753662,0.29264605045318604,0.25930920243263245,-0.5003111362457275,-0.35852620005607605,-0.31317412853240967,-0.8794207572937012,-0.13801002502441406,0.005587488412857056,-0.0019420981407165527,-0.9099094500142588,-0.08784347534486667,0.229288327759558,0.334327781523978,0.31853346152195666,-0.38711332846306173,-0.6412859645585817
1776284986748329472,3.0693295001983643,0.2582675516605377,0.20329467952251434,-0.33258306980133057,-0.3552076816558838,-0.3171597421169281,-0.8793390989303589,-0.0005051791667938232,0.0283566415309906,-0.0004521608352661133,-0.9093332154979623,-0.08998588298772672,0.2285454019289889,0.3358313863880284,0.32273310547283784,-0.38390559582741474,-0.6443057028477892
1776284986758285312,3.0792853832244873,0.2839530408382416,0.18939147889614105,-0.13818857073783875,-0.35278886556625366,-0.3201828896999359,-0.8792172074317932,0.05756181478500366,0.07241064310073853,0.02869236469268799,-0.9090772709427155,-0.09173029509481495,0.2279845062769884,0.3364329991356832,0.32592251836728137,-0.3815863916804666,-0.6454124749169601
1776284986768242432,3.089242458343506,0.34305471181869507,0.09671799093484879,-0.08554745465517044,-0.35116201639175415,-0.32337772846221924,-0.8786990642547607,0.06544119119644165,0.03224003314971924,0.014746427536010742,-0.9089143633986189,-0.09355452611818846,0.22781133462885034,0.3364881541933689,0.3292968472709208,-0.3801947212557183,-0.6452066363447491
1776284986778198272,3.099198341369629,0.254386305809021,0.03617304936051369,-0.14449040591716766,-0.35029250383377075,-0.3264223635196686,-0.8779200315475464,0.06521254777908325,-0.02466711401939392,0.025823473930358887,-0.9086643114949005,-0.09516131855115592,0.22800067021072842,0.33658450113823396,0.33251613637590177,-0.37964636922157974,-0.6450314671424521
1776284986788154368,3.109154462814331,0.13351048529148102,0.01457960531115532,-0.10500477254390717,-0.349592387676239,-0.32854700088500977,-0.8774064183235168,0.011655956506729126,-0.053609371185302734,0.052745163440704346,-0.9083740311392816,-0.09621556171727128,0.22812135972968778,0.3369863527167712,0.33476476804358735,-0.3791594112576032,-0.6456589010800499
1776284986798111488,3.1191115379333496,0.12051153928041458,0.004386517219245434,-0.034072015434503555,-0.3493157923221588,-0.3298247158527374,-0.8770371079444885,0.017742305994033813,-0.0021912753582000732,0.0428391695022583,-0.9082206658178669,-0.09684958800984701,0.22825772657868432,0.33712575270962786,0.3361178892743674,-0.3790320276430974,-0.6457944332112073
1776284986808067328,3.1290674209594727,0.12516248226165771,-0.03842912241816521,-0.004698412958532572,-0.3493776023387909,-0.3309992849826813,-0.8765698671340942,0.0012635886669158936,0.022390305995941162,0.01750004291534424,-0.9081005453120151,-0.09741420320743896,0.2285290827378353,0.33710264205012164,0.3373623702902636,-0.37927611047834675,-0.645547508970077
1776284986818023424,3.139023542404175,0.13355836272239685,-0.06515886634588242,0.13365226984024048,-0.3500079810619354,-0.33190998435020447,-0.8759738206863403,-0.022413283586502075,0.009507060050964355,0.008572757244110107,-0.9080785719876932,-0.0978402624058876,0.22899861108876401,0.33671973289063495,0.3383276320663482,-0.38013081165479873,-0.6444804026486516
1776284986827980544,3.1489806175231934,0.10890042781829834,-0.05502394586801529,0.3560619056224823,-0.3513711988925934,-0.3321491777896881,-0.8753371834754944,-0.005013108253479004,0.02503553032875061,0.004777491092681885,-0.9083480722975453,-0.09801741487069467,0.2296170495429061,0.335518048887891,0.3385812127120184,-0.3817233515463022,-0.6416275976613136
1776284986837936384,3.1589365005493164,0.05329740419983864,0.017028382048010826,0.5119622945785522,-0.35295024514198303,-0.3313171863555908,-0.8750171661376953,-0.021546214818954468,0.02565312385559082,-0.0014171600341796875,-0.9090387316850549,-0.09786879021391405,0.23002850108166073,0.3334024633525203,0.3376992617110996,-0.38340282569996803,-0.6369125687088304
1776284986847892480,3.1688926219940186,-0.07063919305801392,0.08168833702802658,0.4713166058063507,-0.35422852635383606,-0.3295225203037262,-0.8751782774925232,-0.07330745458602905,0.007195860147476196,-0.015675604343414307,-0.9099190661368239,-0.0973501486347871,0.2300734813126364,0.33111381012699476,0.3357978116195803,-0.38459461053653743,-0.6320181382442303
1776284986857849344,3.178849458694458,-0.17437228560447693,0.3018413782119751,0.2490832507610321,-0.35378220677375793,-0.32710009813308716,-0.8762668967247009,-0.044945210218429565,-0.05777233839035034,-0.016707956790924072,-0.910803155329984,-0.09665584479931935,0.22918159284523296,0.32950112751605376,0.3332332104534356,-0.38372460640152434,-0.6289293190297636
1776284986867805440,3.18880558013916,-0.14939476549625397,0.4602067768573761,-0.22869130969047546,-0.350627601146698,-0.32528653740882874,-0.878207802772522,-0.0371745228767395,-0.08651766180992126,-0.04423177242279053,-0.9114648250003793,-0.09641123146297881,0.22715847609159168,0.3291438669175183,0.331314722221384,-0.3798627275171124,-0.6288232190449732
1776284986877761280,3.198761463165283,-0.19721673429012299,0.4111822843551636,0.14910899102687836,-0.3465385138988495,-0.32405775785446167,-0.8802827000617981,-0.0605507493019104,-0.03437119722366333,-0.057003676891326904,-0.9118648579129759,-0.09640775771833755,0.22486484964055917,0.329611442334154,0.33001555857630377,-0.37503525967518353,-0.6305388786298235
1776284986887718400,3.2087185382843018,-0.18496432900428772,0.0872950330376625,-0.10050243139266968,-0.3445248305797577,-0.3221534788608551,-0.8817707896232605,0.06826445460319519,-0.01592022180557251,-0.022251367568969727,-0.9122815732577002,-0.09583728370628737,0.22344979891019093,0.32958701552141695,0.3280033630009351,-0.3724802087239259,-0.6310288818234903
1776284986897674240,3.218674421310425,-0.16131272912025452,-0.5998260974884033,0.8839350342750549,-0.3474850654602051,-0.31976228952407837,-0.8814795613288879,0.10172700881958008,0.05483919382095337,0.02144843339920044,-0.9125996316829705,-0.09443188384881507,0.22437210179754483,0.32848399125551464,0.32547859681431257,-0.37550212209619993,-0.6286417608659399
1776284986907630336,3.228630542755127,-0.48754942417144775,-1.5366926193237305,0.9452915787696838,-0.36450648307800293,-0.3134751319885254,-0.8768513798713684,0.46761012077331543,-0.09208819270133972,0.10448205471038818,-0.9126390585823596,-0.089344498304282,0.23149915793054202,0.3248318002266772,0.3188504233041436,-0.3939665376396286,-0.6197323374178928
1776284986917587456,3.2385876178741455,-0.529889702796936,-0.06671267002820969,0.4625073969364166,-0.3723479211330414,-0.3061924874782562,-0.8761296272277832,0.12182915210723877,0.024789929389953613,0.2504125237464905,-0.9132356227214671,-0.0850205189537172,0.23389459992215647,0.3225917894729836,0.31119083100132167,-0.40186370138686955,-0.615239195642117
1776284986927543296,3.2485435009002686,-0.4442203640937805,0.07510758191347122,-0.14590081572532654,-0.3723203241825104,-0.3014086186885834,-0.8777986168861389,-0.2881868779659271,-0.038084179162979126,-0.18021529912948608,-0.9137760074416262,-0.08275680482284534,0.2329205796970881,0.32235505534060865,0.3061696305824664,-0.40115243648225746,-0.6155676505573071
1776284986937500416,3.258500576019287,-0.5031097531318665,-0.13935571908950806,-0.3800160884857178,-0.371797114610672,-0.2984153628349304,-0.8790422081947327,-0.22585910558700562,-0.08291703462600708,-0.020295560359954834,-0.9134219875804646,-0.08089180302273839,0.2322400083346919,0.32431677451298574,0.30303193684937785,-0.4001390089854489,-0.6204410945389546
1776284986947456256,3.26845645904541,-0.4072817862033844,-0.1026775911450386,-0.07424020767211914,-0.3722548186779022,-0.2952111065387726,-0.8799299597740173,-0.07298135757446289,0.031157761812210083,0.055497586727142334,-0.9130478633052231,-0.07881579102143661,0.23199802749805712,0.32605002493170177,0.2996764629741233,-0.400218255349927,-0.6247517698909547
1776284986957412608,3.2784125804901123,-0.11483381688594818,-0.005529922898858786,0.17710094153881073,-0.3728821575641632,-0.2926294803619385,-0.8805264830589294,0.06982734799385071,0.10783028602600098,-0.03660303354263306,-0.9132027449935516,-0.07744796503553442,0.2318157964278808,0.3260737348711991,0.29697553075647526,-0.4005793957974527,-0.6251939002507675
1776284986967369216,3.2883694171905518,0.139882892370224,0.04971522465348244,0.08909199386835098,-0.3730982840061188,-0.2922791838645935,-0.880551278591156,0.032903581857681274,0.1078309416770935,-0.084506094455719,-0.9134586624031482,-0.07741778220946129,0.23179915960579725,0.3253750026401742,0.2966092343775254,-0.4007774008240966,-0.6237042712374522
1776284986977325312,3.298325538635254,0.2321792095899582,0.07638387382030487,-0.06376492977142334,-0.3725360929965973,-0.29398074746131897,-0.8802227973937988,-0.05397757887840271,0.07451358437538147,-0.04963254928588867,-0.9134646683897789,-0.07840957363134425,0.23182006194307633,0.32510560245938624,0.2983889742559756,-0.4003699038968469,-0.62287106323253
1776284986987281408,3.308281421661377,0.22050099074840546,0.07075448334217072,-0.056403953582048416,-0.37166357040405273,-0.2962417006492615,-0.8798335194587708,-0.051477909088134766,0.040290772914886475,-0.008807837963104248,-0.9133512248661674,-0.07965360840079025,0.23181573059030197,0.32512516465572083,0.3007553092162786,-0.39968747784244807,-0.6226045705897182
1776284986997238272,3.3182384967803955,0.16964280605316162,0.0472145676612854,0.003105714451521635,-0.37106701731681824,-0.29805663228034973,-0.8794723153114319,0.009250611066818237,0.014624625444412231,0.008134424686431885,-0.9133039279943072,-0.08067522022715935,0.23185202070485114,0.32498019228344904,0.3026560885718195,-0.3992590404824706,-0.622029927394966
1776284987007194624,3.3281946182250977,0.08761079609394073,0.020089739933609962,-0.011855391785502434,-0.37077879905700684,-0.2991833984851837,-0.8792112469673157,0.024999409914016724,-0.010676831007003784,0.0243070125579834,-0.9132917894248618,-0.08131486652836752,0.23191007429859778,0.3248134242398399,0.3038367508314384,-0.3990871119068465,-0.6214973005138762
1776284987017150464,3.3381505012512207,0.010835804045200348,-0.0030060983262956142,-0.05674350634217262,-0.37060558795928955,-0.2997271418571472,-0.8790990710258484,0.0024110078811645508,-0.026902496814727783,0.03707331418991089,-0.9132249110062916,-0.08158316793283804,0.2319367358317512,0.32491527378812296,0.3044066304059886,-0.398965472533334,-0.6216431690241756
1776284987027107584,3.3481075763702393,-0.03096516989171505,-0.011173747479915619,-0.059887632727622986,-0.3704882562160492,-0.2998475134372711,-0.8791074752807617,-0.006663233041763306,-0.029605001211166382,0.03235149383544922,-0.9131225282032458,-0.08158732809937504,0.23192623932501205,0.3252091003355585,0.30453279656308724,-0.39884874917011404,-0.6222775976277474
1776284987037063424,3.3580634593963623,-0.035580214112997055,-0.007304014638066292,-0.02586175501346588,-0.3704453706741333,-0.29970583319664,-0.8791738152503967,0.0028611719608306885,-0.019782662391662598,0.021034836769104004,-0.9130552804419079,-0.08146503154261925,0.23189767151981847,0.3254488791080424,0.3043842939324449,-0.3987803045555736,-0.6228318277668846
1776284987047019520,3.3680195808410645,-0.015050174668431282,0.006716730073094368,-0.0028376621194183826,-0.370413601398468,-0.29953548312187195,-0.8792452812194824,0.004706233739852905,-0.008264809846878052,0.008456707000732422,-0.9130428409187681,-0.0813649564534629,0.2318557700349017,0.3255387902684233,0.30420573757073655,-0.3987205304377478,-0.6230616738562033
1776284987056976384,3.377976417541504,0.008878806605935097,0.020261593163013458,-0.0021590888500213623,-0.3702951669692993,-0.2995256185531616,-0.8792985677719116,-0.008717894554138184,-0.002995133399963379,-0.001316666603088379,-0.9130556223746241,-0.08137941379665774,0.23179327119749818,0.3255438935909046,0.3041954186783821,-0.398584454165861,-0.6230865837940002
1776284987066932480,3.387932538986206,0.02466868981719017,0.02822204865515232,-0.012100934982299805,-0.37006115913391113,-0.29970893263816833,-0.879334568977356,-0.015360593795776367,-0.002872854471206665,-0.010466456413269043,-0.9130639886876705,-0.08150802536582238,0.2317092072849694,0.32554781282391215,0.3043875514949902,-0.39834373962812636,-0.6230869753811245
1776284987076888320,3.397888422012329,0.020833151414990425,0.027733253315091133,-0.01700381375849247,-0.369771808385849,-0.29996418952941895,-0.8793692588806152,-0.011957317590713501,-0.003349989652633667,-0.013529300689697266,-0.9130643964092643,-0.08167570993652985,0.23161273217171088,0.3255732738897723,0.3046551220382354,-0.3980500967204881,-0.6231278054259061
1776284987086845440,3.4078454971313477,0.006696293130517006,0.015597227029502392,-0.021660085767507553,-0.36952823400497437,-0.3001469075679779,-0.8794093132019043,-0.0032439827919006348,-0.0020076334476470947,-0.008835315704345703,-0.9130542816295733,-0.08179164989228062,0.23152855410695475,0.3256325782598314,0.3048466636827159,-0.3977984069697003,-0.6232508371134297
1776284987096801536,3.41780161857605,0.0003758128732442856,0.005788538604974747,-0.03176651522517204,-0.3693557679653168,-0.30026841163635254,-0.8794403076171875,0.00399935245513916,-0.001214742660522461,-0.004852294921875,-0.9130220311394822,-0.08185156355776722,0.23147391991945032,0.32574696863435976,0.3049740440310838,-0.39761915406810383,-0.6234979566069049
1776284987106757376,3.427757501602173,0.0027127366047352552,0.0017080428078770638,-0.04180610179901123,-0.3692149519920349,-0.300420880317688,-0.879447340965271,0.0043010413646698,0.001287609338760376,0.001441359519958496,-0.9129650289593831,-0.08190826468411434,0.23144626880136054,0.32591177041267566,0.305133896116394,-0.3974801823301917,-0.6238468407050103
1776284987116714496,3.4377145767211914,0.011242841370403767,-0.0016624538693577051,-0.04238826781511307,-0.36908259987831116,-0.3006284534931183,-0.879431962966919,0.004214435815811157,0.003066807985305786,0.008048295974731445,-0.9128957543851313,-0.08198581511852572,0.23143539583521544,0.32609411978712166,0.30535151532146415,-0.39735844628780165,-0.624223920630741
1776284987126670336,3.4476704597473145,0.02278205193579197,0.0017700945027172565,-0.038709379732608795,-0.36897891759872437,-0.3009253442287445,-0.8793739080429077,0.005011051893234253,0.002890676259994507,0.009912848472595215,-0.9128217584558481,-0.08210676891052475,0.23145521245181214,0.32625676763369094,0.3056628317998947,-0.3972817637454368,-0.6245394895280896
1776284987136627456,3.457627534866333,0.02455907315015793,0.008551089093089104,-0.043398138135671616,-0.36880961060523987,-0.30128395557403564,-0.8793221712112427,0.003895670175552368,0.00016701221466064453,0.004291653633117676,-0.9127516330758076,-0.0822706950262356,0.23145292559769476,0.3264131078049555,0.3060388951904166,-0.3971390263522187,-0.6248373203120084
1776284987146583296,3.467583417892456,0.01806255802512169,0.01219429261982441,-0.04577527567744255,-0.368572473526001,-0.3016427457332611,-0.8792985677719116,-0.0006749629974365234,-0.0017935335636138916,0.001918196678161621,-0.9126819716755346,-0.08244129066486355,0.23141766859063506,0.3265899869861786,0.3064151873256263,-0.3969192192440012,-0.6251872718516513
1776284987156539392,3.477539539337158,0.01095985434949398,0.013303126208484173,-0.039787426590919495,-0.3683282732963562,-0.3019270896911621,-0.8793032765388489,0.00036263465881347656,-0.003630131483078003,-0.0008388757705688477,-0.9126211466222097,-0.08257788364739996,0.23136387285953922,0.3267632703384087,0.3067134232871596,-0.39668108766913773,-0.625542960370451
1776284987166496512,3.4874966144561768,0.003488621674478054,0.012704714201390743,-0.030400579795241356,-0.36811232566833496,-0.3021125793457031,-0.879330039024353,0.005334645509719849,-0.005336761474609375,-0.0038334131240844727,-0.9125771231067664,-0.0826691849576859,0.23130239623338986,0.3269066393309737,0.30690802571438275,-0.3964613192612017,-0.6258473938479843
1776284987176452352,3.4974524974823,0.000412351218983531,0.010319214314222336,-0.025082247331738472,-0.3679194450378418,-0.302228182554245,-0.8793710470199585,0.006911784410476685,-0.005327969789505005,-0.006706833839416504,-0.912546441585973,-0.0827291731845623,0.23123660000641066,0.3270238485813367,0.30702929344798663,-0.3962580419357173,-0.6261042752377006
1776284987186408448,3.507408618927002,0.001087462529540062,0.007129013538360596,-0.019910920411348343,-0.3677735924720764,-0.30230265855789185,-0.8794064521789551,0.004660189151763916,-0.005680739879608154,-0.005893230438232422,-0.912522233059453,-0.08276676400891166,0.23118486172542851,0.3271183927695127,0.3071074225189394,-0.396102545681063,-0.6263136865941727
1776284987196365312,3.5173654556274414,0.007720917463302612,0.002556073246523738,-0.013642372563481331,-0.3676874041557312,-0.30240368843078613,-0.8794077634811401,0.004512965679168701,-0.004755735397338867,-0.004518628120422363,-0.9124977465769226,-0.08281326468863065,0.23116679267035575,0.32718767766987217,0.30721340439068456,-0.3960185879488158,-0.6264570409439826
1776284987206321408,3.5273215770721436,0.01787155494093895,-0.002474371809512377,-0.00824760738760233,-0.36765480041503906,-0.30255192518234253,-0.879370391368866,0.00493815541267395,-0.0034326016902923584,-0.006524384021759033,-0.9124755162117946,-0.08288238791098489,0.23118241037665732,0.32722128700707237,0.3073689131513675,-0.39600216695096047,-0.6265085933245667
1776284987216277248,3.5372774600982666,0.02591094747185707,-0.005533332005143166,-0.0045090620405972,-0.36766481399536133,-0.30276626348495483,-0.8792924284934998,0.004566699266433716,-0.0012040436267852783,-0.006663382053375244,-0.9124514610256393,-0.08298289770658238,0.23123069105613384,0.32722848733783383,0.307593821531126,-0.3960434255929805,-0.6264863799011221
1776284987226234368,3.547234535217285,0.040966060012578964,-0.011357665061950684,-0.0014946298906579614,-0.367733895778656,-0.30306535959243774,-0.879160463809967,0.0018739104270935059,0.0014906525611877441,-0.004933714866638184,-0.9124215054643351,-0.08312042322096656,0.23132390400180547,0.3272114222016379,0.3079076663964708,-0.39616370392984906,-0.626390371219061
